Folder: StimNET/Figure 1F/data (part 2)

File: 5M.DTA
EXPLAIN
TAG	CV
TITLE	LABEL	Cyclic Voltammetry	Test &Identifier
DATE	LABEL	8/23/2021	Date
TIME	LABEL	17:16:21	Time
NOTES	NOTES	1	&Notes...

PSTAT	PSTAT	REF600P-40007	Potentiostat
VINIT	POTEN	0.00000E+000	F	Initial &E (V)
VLIMIT1	POTEN	8.00000E-001	F	Scan Limit &1 (V)
VLIMIT2	POTEN	-6.00000E-001	F	Scan Limit &2 (V)
VFINAL	POTEN	0.00000E+000	F	Final &E (V)
SCANRATE	QUANT	9.99998E+001	&Scan Rate (mV/s)
STEPSIZE	QUANT	1.00000E+001	St&ep Size (mV)
CYCLES	IQUANT	5	C&ycles (#)
IMODE	SELECTOR	0	I/E Range &Mode
IRANGE	QUANT	3.00000E-001	&Max Current (mA)
AREA	QUANT	2.87000E-005	Electrode &Area (cm^2)
ELECTRODETYPE	SELECTOR	0	Electrode Type
STRIPPING	TOGGLE	F	Used for Stripping
POLARITY	TOGGLE	F	Signal Polarity
CONDIT	TWOPARAM	F	1.50000E+001	0.00000E+000	Conditionin&g	Time(s)	E(V)
DELAY	TWOPARAM	T	5.00000E+000	0.00000E+000	Init. De&lay	Time(s)	Stab.(mV/s)
EQDELAY	QUANT	5.00000E+000	Equil. &Time (s)
IRCOMP	SELECTOR	0	IRCom&p
PFCOR	QUANT	5.00000E+001	PF Corr. (ohm)
SAMPLINGMODE	SELECTOR	2	Sampling &Mode
OCVCURVE	TABLE	19
	Pt	T	Vf	Vm	Ach	Over	Temp
	#	s	V vs. Ref.	V	V	bits	deg C
	0	0.258333	7.71830E-002	7.71830E-002	1.15847E-003	..........a	-327.65
	1	0.516667	7.71954E-002	7.78283E-002	1.15334E-003	..........a	-327.65
	2	0.775	7.72716E-002	7.84678E-002	1.15194E-003	..........a	-327.65
	3	1.03333	7.74891E-002	7.90870E-002	1.15174E-003	..........a	-327.65
	4	1.29167	7.78806E-002	7.95983E-002	1.15874E-003	..........a	-327.65
	5	1.55	7.84022E-002	8.02496E-002	1.16180E-003	..........a	-327.65
	6	1.80833	7.89867E-002	8.09561E-002	1.15867E-003	..........a	-327.65
	7	2.06667	7.95976E-002	8.15072E-002	1.15014E-003	..........a	-327.65
	8	2.325	8.02214E-002	8.20739E-002	1.15314E-003	..........a	-327.65
	9	2.58333	8.08416E-002	8.26154E-002	1.15367E-003	..........a	-327.65
	10	2.84167	8.14411E-002	8.31543E-002	1.15627E-003	..........a	-327.65
	11	3.1	8.20154E-002	8.36931E-002	1.14554E-003	..........a	-327.65
	12	3.35833	8.25699E-002	8.42183E-002	1.15140E-003	..........a	-327.65
	13	3.61667	8.31118E-002	8.47370E-002	1.15167E-003	..........a	-327.65
	14	3.875	8.36453E-002	8.52426E-002	1.15174E-003	..........a	-327.65
	15	4.13333	8.41711E-002	8.57443E-002	1.15047E-003	..........a	-327.65
	16	4.39167	8.46889E-002	8.62411E-002	1.15520E-003	..........a	-327.65
	17	4.65	8.51989E-002	8.67371E-002	1.15940E-003	..........a	-327.65
	18	4.90833	8.57024E-002	8.72267E-002	1.15454E-003	..........a	-327.65
EOC	QUANT	0.0857024	Open Circuit (V)
PSTATMODEL	IQUANT	7	Pstat Model
PSTATSECTION	LABEL	REF600P-40007	Pstat Section
PSTATSERIALNO	LABEL	40007	Pstat Serial Number
CTRLMODE	IQUANT	1	Control Mode
ELECTROMETER	IQUANT	0	RE=0 or CS=1
IESTAB	IQUANT	2	I/E Stability
CASPEED	IQUANT	4	Control Amp Speed
CONVENTION	IQUANT	1	Current Convention
ICHRANGE	IQUANT	2	Ich Range
ICHRANGEMODE	TOGGLE	F	Ich Auto Range
ICHOFFSETENABLE	TOGGLE	F	Ich Offset Enable
ICHOFFSET	QUANT	0	Ich Offset (V)
ICHFILTER	IQUANT	2	Ich Filter
VCHRANGE	IQUANT	2	Vch Range
VCHRANGEMODE	TOGGLE	F	Vch Auto Range
VCHOFFSETENABLE	TOGGLE	F	Vch Offset Enable
VCHOFFSET	QUANT	0	Vch Offset (V)
VCHFILTER	IQUANT	2	Vch Filter
ACHRANGE	IQUANT	2	Ach Range
ACHOFFSETENABLE	TOGGLE	F	Ach Offset Enable
ACHOFFSET	QUANT	0	Ach Offset (V)
ACHFILTER	IQUANT	1	Ach Filter
IERANGELOWERLIMIT	IQUANT	1	I/E Range Lower Limit
IERANGEMODE	TOGGLE	T	I/E AutoRange
IERANGE	IQUANT	8	I/E Range
POSFEEDENABLE	TOGGLE	F	Positive Feedback IR Comp
POSFEEDRESISTANCE	QUANT	0	Positive Feedback Resistance (ohm)
ACHSELECT	IQUANT	0	Ach Select
SENSECABLEID	IQUANT	7	Sense Cable ID
PWRCABLEID	IQUANT	7	Power Cable ID
DCCALDATE	LABEL	8/21/2021	DC Calibration Date
ACCALDATE	LABEL	8/21/2021	AC Calibration Date
THERMOSELECT	IQUANT	1	Thermo Select
FRAMEWORKVERSION	LABEL	7.8.1	Framework Version
INSTRUMENTVERSION	LABEL	4.40	Instrument Version
CURVE1	TABLE
	Pt	T	Vf	Im	Vu	Sig	Ach	IERange	Over	Temp
	#	s	V vs. Ref.	A	V	V	V	#	bits	deg C
	0	0.1	6.81365E-005	1.76959E-007	0.00000E+000	7.45058E-009	1.12920E-003	8	..........a	-327.65
	3	0.4	3.00871E-002	1.08203E-008	0.00000E+000	3.00000E-002	1.14147E-003	6	..........a	-327.65
	6	0.7	6.01102E-002	1.36701E-008	0.00000E+000	6.00000E-002	3.89702E-005	6	..........a	-327.65
	9	1	9.00379E-002	1.64483E-008	0.00000E+000	9.00000E-002	3.70035E-005	6	..........a	-327.65
	12	1.3	1.20069E-001	1.94669E-008	0.00000E+000	1.20000E-001	3.89702E-005	6	..........a	-327.65
	15	1.6	1.50086E-001	2.27183E-008	0.00000E+000	1.50000E-001	3.41369E-005	6	..........a	-327.65
	18	1.9	1.80078E-001	2.62417E-008	0.00000E+000	1.80000E-001	4.20035E-005	6	..........a	-327.65
	21	2.2	2.10072E-001	2.95635E-008	0.00000E+000	2.10000E-001	3.75368E-005	6	..........a	-327.65
	24	2.5	2.40092E-001	3.25121E-008	0.00000E+000	2.40000E-001	3.87368E-005	6	..........a	-327.65
	27	2.8	2.70027E-001	3.49949E-008	0.00000E+000	2.70000E-001	4.11035E-005	6	..........a	-327.65
	30	3.1	3.00112E-001	3.70737E-008	0.00000E+000	3.00000E-001	4.52035E-005	6	..........a	-327.65
	33	3.4	3.30068E-001	3.89098E-008	0.00000E+000	3.30000E-001	4.77369E-005	6	..........a	-327.65
	36	3.7	3.60052E-001	4.08195E-008	0.00000E+000	3.60000E-001	4.44035E-005	6	..........a	-327.65
	39	4	3.90076E-001	4.27722E-008	0.00000E+000	3.90000E-001	4.64702E-005	6	..........a	-327.65
	42	4.3	4.20153E-001	4.50222E-008	0.00000E+000	4.20000E-001	4.56702E-005	6	..........a	-327.65
	45	4.6	4.50125E-001	4.74557E-008	0.00000E+000	4.50000E-001	4.74702E-005	6	..........a	-327.65
	48	4.9	4.80125E-001	5.00164E-008	0.00000E+000	4.80000E-001	4.57702E-005	6	..........a	-327.65
	51	5.2	5.10127E-001	5.25370E-008	0.00000E+000	5.10000E-001	4.83702E-005	6	..........a	-327.65
	54	5.5	5.40153E-001	5.50627E-008	0.00000E+000	5.40000E-001	5.15702E-005	6	..........a	-327.65
	57	5.8	5.70153E-001	5.74438E-008	0.00000E+000	5.70000E-001	3.97368E-005	6	..........a	-327.65
	60	6.1	6.00144E-001	5.96146E-008	0.00000E+000	6.00000E-001	4.77702E-005	6	..........a	-327.65
	63	6.4	6.30124E-001	6.15977E-008	0.00000E+000	6.30000E-001	4.75035E-005	6	..........a	-327.65
	66	6.7	6.60138E-001	6.34841E-008	0.00000E+000	6.60000E-001	4.46035E-005	6	..........a	-327.65
	69	7	6.90134E-001	6.54303E-008	0.00000E+000	6.90000E-001	4.52368E-005	6	..........a	-327.65
	72	7.3	7.20112E-001	6.75446E-008	0.00000E+000	7.20000E-001	4.42368E-005	6	..........a	-327.65
	75	7.6	7.50131E-001	6.99933E-008	0.00000E+000	7.50000E-001	4.19368E-005	6	..........a	-327.65
	78	7.9	7.80146E-001	7.28112E-008	0.00000E+000	7.80000E-001	5.03368E-005	6	..........a	-327.65
	81	8.2	7.90162E-001	4.10531E-008	0.00000E+000	7.90000E-001	4.40368E-005	6	..........a	-327.65
	84	8.5	7.60178E-001	1.56258E-008	0.00000E+000	7.60000E-001	3.61702E-005	6	..........a	-327.65
	87	8.8	7.30103E-001	4.39471E-009	0.00000E+000	7.30000E-001	4.12035E-005	6	..........a	-327.65
	90	9.1	7.00208E-001	-1.78088E-009	0.00000E+000	7.00000E-001	4.66702E-005	6	..........a	-327.65
	93	9.4	6.70165E-001	-5.59066E-009	0.00000E+000	6.70000E-001	5.37368E-005	6	..........a	-327.65
	96	9.7	6.40154E-001	-8.14414E-009	0.00000E+000	6.40000E-001	5.10369E-005	6	..........a	-327.65
	99	10	6.10181E-001	-1.00166E-008	0.00000E+000	6.10000E-001	5.15368E-005	6	..........a	-327.65
	102	10.3	5.80232E-001	-1.14651E-008	0.00000E+000	5.80000E-001	4.73368E-005	6	..........a	-327.65
	105	10.6	5.50191E-001	-1.26552E-008	0.00000E+000	5.50000E-001	4.83702E-005	6	..........a	-327.65
[...]
	1365	136.6	-3.50047E-001	9.32155E-010	0.00000E+000	-3.50000E-001	4.25702E-005	6	..........a	-327.65
	1366	136.7	-3.40024E-001	1.77184E-009	0.00000E+000	-3.40000E-001	4.39702E-005	6	..........a	-327.65
	1367	136.8	-3.30057E-001	2.62095E-009	0.00000E+000	-3.30000E-001	4.67035E-005	6	..........a	-327.65
	1368	136.9	-3.20017E-001	3.43602E-009	0.00000E+000	-3.20000E-001	4.80035E-005	6	..........a	-327.65
	1369	137	-3.10056E-001	4.20635E-009	0.00000E+000	-3.10000E-001	4.72035E-005	6	..........a	-327.65
	1370	137.1	-3.00023E-001	4.96271E-009	0.00000E+000	-3.00000E-001	4.38702E-005	6	..........a	-327.65
	1371	137.2	-2.90064E-001	5.67035E-009	0.00000E+000	-2.90000E-001	4.77035E-005	6	..........a	-327.65
	1372	137.3	-2.80036E-001	6.46311E-009	0.00000E+000	-2.80000E-001	5.12368E-005	6	..........a	-327.65
	1373	137.4	-2.70016E-001	7.19473E-009	0.00000E+000	-2.70000E-001	5.13369E-005	6	..........a	-327.65
	1374	137.5	-2.59994E-001	7.86296E-009	0.00000E+000	-2.60000E-001	4.90368E-005	6	..........a	-327.65
	1375	137.6	-2.50048E-001	8.57794E-009	0.00000E+000	-2.50000E-001	4.90368E-005	6	..........a	-327.65
	1376	137.7	-2.40011E-001	9.24650E-009	0.00000E+000	-2.40000E-001	4.73368E-005	6	..........a	-327.65
	1377	137.8	-2.30063E-001	9.92453E-009	0.00000E+000	-2.30000E-001	4.16035E-005	6	..........a	-327.65
	1378	137.9	-2.19996E-001	1.06090E-008	0.00000E+000	-2.20000E-001	4.30702E-005	6	..........a	-327.65
	1379	138	-2.10052E-001	1.12891E-008	0.00000E+000	-2.10000E-001	4.59369E-005	6	..........a	-327.65
	1380	138.1	-2.00033E-001	1.19721E-008	0.00000E+000	-2.00000E-001	4.72368E-005	6	..........a	-327.65
	1381	138.2	-1.90094E-001	1.25816E-008	0.00000E+000	-1.90000E-001	4.46702E-005	6	..........a	-327.65
	1382	138.3	-1.80008E-001	1.32086E-008	0.00000E+000	-1.80000E-001	4.43702E-005	6	..........a	-327.65
	1383	138.4	-1.70019E-001	1.37695E-008	0.00000E+000	-1.70000E-001	4.42368E-005	6	..........a	-327.65
	1384	138.5	-1.59989E-001	1.44738E-008	0.00000E+000	-1.60000E-001	3.94368E-005	6	..........a	-327.65
	1385	138.6	-1.50049E-001	1.51039E-008	0.00000E+000	-1.50000E-001	4.04368E-005	6	..........a	-327.65
	1386	138.7	-1.40029E-001	1.57177E-008	0.00000E+000	-1.40000E-001	3.73035E-005	6	..........a	-327.65
	1387	138.8	-1.30057E-001	1.63429E-008	0.00000E+000	-1.30000E-001	3.98035E-005	6	..........a	-327.65
	1388	138.9	-1.20019E-001	1.70025E-008	0.00000E+000	-1.20000E-001	4.46035E-005	6	..........a	-327.65
	1389	139	-1.10048E-001	1.76302E-008	0.00000E+000	-1.10000E-001	4.04702E-005	6	..........a	-327.65
	1390	139.1	-1.00028E-001	1.82706E-008	0.00000E+000	-1.00000E-001	4.04702E-005	6	..........a	-327.65
	1391	139.2	-9.00421E-002	1.89054E-008	0.00000E+000	-9.00000E-002	4.05035E-005	6	..........a	-327.65
	1392	139.3	-8.00325E-002	1.95622E-008	0.00000E+000	-8.00000E-002	4.15035E-005	6	..........a	-327.65
	1393	139.4	-7.00284E-002	2.01862E-008	0.00000E+000	-7.00000E-002	4.42368E-005	6	..........a	-327.65
	1394	139.5	-6.00176E-002	2.08332E-008	0.00000E+000	-6.00000E-002	3.43702E-005	6	..........a	-327.65
	1395	139.6	-5.00713E-002	2.15356E-008	0.00000E+000	-5.00000E-002	3.73035E-005	6	..........a	-327.65
	1396	139.7	-4.00255E-002	2.22265E-008	0.00000E+000	-4.00000E-002	3.67035E-005	6	..........a	-327.65
	1397	139.8	-3.00713E-002	2.29070E-008	0.00000E+000	-3.00000E-002	3.87702E-005	6	..........a	-327.65
	1398	139.9	-2.00027E-002	2.36381E-008	0.00000E+000	-2.00000E-002	4.01368E-005	6	..........a	-327.65
	1399	140	-1.00527E-002	2.44026E-008	0.00000E+000	-1.00000E-002	3.98368E-005	6	..........a	-327.65
	1400	140.1	4.67179E-005	2.51444E-008	0.00000E+000	7.45058E-009	1.13704E-003	6	..........a	-327.65

File: 7.5M.DTA
EXPLAIN
TAG	CV
TITLE	LABEL	Cyclic Voltammetry	Test &Identifier
DATE	LABEL	8/23/2021	Date
TIME	LABEL	21:40:34	Time
NOTES	NOTES	1	&Notes...

PSTAT	PSTAT	REF600P-40007	Potentiostat
VINIT	POTEN	0.00000E+000	F	Initial &E (V)
VLIMIT1	POTEN	8.00000E-001	F	Scan Limit &1 (V)
VLIMIT2	POTEN	-6.00000E-001	F	Scan Limit &2 (V)
VFINAL	POTEN	0.00000E+000	F	Final &E (V)
SCANRATE	QUANT	9.99998E+001	&Scan Rate (mV/s)
STEPSIZE	QUANT	1.00000E+001	St&ep Size (mV)
CYCLES	IQUANT	5	C&ycles (#)
IMODE	SELECTOR	0	I/E Range &Mode
IRANGE	QUANT	3.00000E-001	&Max Current (mA)
AREA	QUANT	2.87000E-005	Electrode &Area (cm^2)
ELECTRODETYPE	SELECTOR	0	Electrode Type
STRIPPING	TOGGLE	F	Used for Stripping
POLARITY	TOGGLE	F	Signal Polarity
CONDIT	TWOPARAM	F	1.50000E+001	0.00000E+000	Conditionin&g	Time(s)	E(V)
DELAY	TWOPARAM	T	5.00000E+000	0.00000E+000	Init. De&lay	Time(s)	Stab.(mV/s)
EQDELAY	QUANT	5.00000E+000	Equil. &Time (s)
IRCOMP	SELECTOR	0	IRCom&p
PFCOR	QUANT	5.00000E+001	PF Corr. (ohm)
SAMPLINGMODE	SELECTOR	2	Sampling &Mode
OCVCURVE	TABLE	19
	Pt	T	Vf	Vm	Ach	Over	Temp
	#	s	V vs. Ref.	V	V	bits	deg C
	0	0.258333	8.96211E-002	8.96211E-002	1.13947E-003	..........a	-327.65
	1	0.516667	8.96287E-002	9.00191E-002	1.13480E-003	..........a	-327.65
	2	0.775	8.96777E-002	9.05186E-002	1.14000E-003	..........a	-327.65
	3	1.03333	8.98247E-002	9.10266E-002	1.13440E-003	..........a	-327.65
	4	1.29167	9.01048E-002	9.14969E-002	1.12967E-003	..........a	-327.65
	5	1.55	9.04996E-002	9.19352E-002	1.13067E-003	..........a	-327.65
	6	1.80833	9.09556E-002	9.23299E-002	1.12920E-003	..........a	-327.65
	7	2.06667	9.14217E-002	9.27388E-002	1.13087E-003	..........a	-327.65
	8	2.325	9.18701E-002	9.31438E-002	1.13054E-003	..........a	-327.65
	9	2.58333	9.22991E-002	9.36860E-002	1.13494E-003	..........a	-327.65
	10	2.84167	9.27306E-002	9.44019E-002	1.13067E-003	..........a	-327.65
	11	3.1	9.31997E-002	9.49235E-002	1.13114E-003	..........a	-327.65
	12	3.35833	9.37236E-002	9.54070E-002	1.13447E-003	..........a	-327.65
	13	3.61667	9.42783E-002	9.58055E-002	1.13307E-003	..........a	-327.65
	14	3.875	9.48154E-002	9.60579E-002	1.12847E-003	..........a	-327.65
	15	4.13333	9.52919E-002	9.62746E-002	1.12994E-003	..........a	-327.65
	16	4.39167	9.56874E-002	9.65977E-002	1.12767E-003	..........a	-327.65
	17	4.65	9.60146E-002	9.69894E-002	1.12447E-003	..........a	-327.65
	18	4.90833	9.63125E-002	9.72615E-002	1.12747E-003	..........a	-327.65
EOC	QUANT	0.0963125	Open Circuit (V)
PSTATMODEL	IQUANT	7	Pstat Model
PSTATSECTION	LABEL	REF600P-40007	Pstat Section
PSTATSERIALNO	LABEL	40007	Pstat Serial Number
CTRLMODE	IQUANT	1	Control Mode
ELECTROMETER	IQUANT	0	RE=0 or CS=1
IESTAB	IQUANT	2	I/E Stability
CASPEED	IQUANT	4	Control Amp Speed
CONVENTION	IQUANT	1	Current Convention
ICHRANGE	IQUANT	2	Ich Range
ICHRANGEMODE	TOGGLE	F	Ich Auto Range
ICHOFFSETENABLE	TOGGLE	F	Ich Offset Enable
ICHOFFSET	QUANT	0	Ich Offset (V)
ICHFILTER	IQUANT	2	Ich Filter
VCHRANGE	IQUANT	2	Vch Range
VCHRANGEMODE	TOGGLE	F	Vch Auto Range
VCHOFFSETENABLE	TOGGLE	F	Vch Offset Enable
VCHOFFSET	QUANT	0	Vch Offset (V)
VCHFILTER	IQUANT	2	Vch Filter
ACHRANGE	IQUANT	2	Ach Range
ACHOFFSETENABLE	TOGGLE	F	Ach Offset Enable
ACHOFFSET	QUANT	0	Ach Offset (V)
ACHFILTER	IQUANT	1	Ach Filter
IERANGELOWERLIMIT	IQUANT	1	I/E Range Lower Limit
IERANGEMODE	TOGGLE	T	I/E AutoRange
IERANGE	IQUANT	8	I/E Range
POSFEEDENABLE	TOGGLE	F	Positive Feedback IR Comp
POSFEEDRESISTANCE	QUANT	0	Positive Feedback Resistance (ohm)
ACHSELECT	IQUANT	0	Ach Select
SENSECABLEID	IQUANT	7	Sense Cable ID
PWRCABLEID	IQUANT	7	Power Cable ID
DCCALDATE	LABEL	8/21/2021	DC Calibration Date
ACCALDATE	LABEL	8/21/2021	AC Calibration Date
THERMOSELECT	IQUANT	1	Thermo Select
FRAMEWORKVERSION	LABEL	7.8.1	Framework Version
INSTRUMENTVERSION	LABEL	4.40	Instrument Version
CURVE1	TABLE
	Pt	T	Vf	Im	Vu	Sig	Ach	IERange	Over	Temp
	#	s	V vs. Ref.	A	V	V	V	#	bits	deg C
	0	0.1	7.65045E-005	1.72481E-007	0.00000E+000	7.45058E-009	1.12154E-003	8	..........a	-327.65
	3	0.4	3.00836E-002	1.08306E-008	0.00000E+000	3.00000E-002	1.11834E-003	6	..........a	-327.65
	6	0.7	6.01064E-002	1.37392E-008	0.00000E+000	6.00000E-002	2.41035E-005	6	..........a	-327.65
	9	1	9.00431E-002	1.65236E-008	0.00000E+000	9.00000E-002	3.33702E-005	6	..........a	-327.65
	12	1.3	1.20069E-001	1.94906E-008	0.00000E+000	1.20000E-001	3.33702E-005	6	..........a	-327.65
	15	1.6	1.50080E-001	2.27333E-008	0.00000E+000	1.50000E-001	2.87702E-005	6	..........a	-327.65
	18	1.9	1.80076E-001	2.62087E-008	0.00000E+000	1.80000E-001	2.73702E-005	6	..........a	-327.65
	21	2.2	2.10070E-001	2.95888E-008	0.00000E+000	2.10000E-001	2.32702E-005	6	..........a	-327.65
	24	2.5	2.40091E-001	3.25553E-008	0.00000E+000	2.40000E-001	2.37035E-005	6	..........a	-327.65
	27	2.8	2.70031E-001	3.48497E-008	0.00000E+000	2.70000E-001	2.76035E-005	6	..........a	-327.65
	30	3.1	3.00105E-001	3.64709E-008	0.00000E+000	3.00000E-001	2.63702E-005	6	..........a	-327.65
	33	3.4	3.30065E-001	3.74321E-008	0.00000E+000	3.30000E-001	3.05368E-005	6	..........a	-327.65
	36	3.7	3.60057E-001	3.78748E-008	0.00000E+000	3.60000E-001	3.01035E-005	6	..........a	-327.65
	39	4	3.90075E-001	3.80427E-008	0.00000E+000	3.90000E-001	1.71702E-005	6	..........a	-327.65
	42	4.3	4.20146E-001	3.83078E-008	0.00000E+000	4.20000E-001	2.66369E-005	6	..........a	-327.65
	45	4.6	4.50127E-001	3.89922E-008	0.00000E+000	4.50000E-001	2.51035E-005	6	..........a	-327.65
	48	4.9	4.80120E-001	4.02059E-008	0.00000E+000	4.80000E-001	2.49702E-005	6	..........a	-327.65
	51	5.2	5.10128E-001	4.20930E-008	0.00000E+000	5.10000E-001	3.22035E-005	6	..........a	-327.65
	54	5.5	5.40145E-001	4.44207E-008	0.00000E+000	5.40000E-001	2.94368E-005	6	..........a	-327.65
	57	5.8	5.70146E-001	4.72988E-008	0.00000E+000	5.70000E-001	2.76368E-005	6	..........a	-327.65
	60	6.1	6.00142E-001	5.03046E-008	0.00000E+000	6.00000E-001	3.07702E-005	6	..........a	-327.65
	63	6.4	6.30144E-001	5.34788E-008	0.00000E+000	6.30000E-001	2.47368E-005	6	..........a	-327.65
	66	6.7	6.60140E-001	5.67282E-008	0.00000E+000	6.60000E-001	3.21702E-005	6	..........a	-327.65
	69	7	6.90134E-001	6.00143E-008	0.00000E+000	6.90000E-001	3.05368E-005	6	..........a	-327.65
	72	7.3	7.20114E-001	6.33531E-008	0.00000E+000	7.20000E-001	2.97035E-005	6	..........a	-327.65
	75	7.6	7.50134E-001	6.69448E-008	0.00000E+000	7.50000E-001	3.08368E-005	6	..........a	-327.65
	78	7.9	7.80151E-001	7.08987E-008	0.00000E+000	7.80000E-001	2.72368E-005	6	..........a	-327.65
	81	8.2	7.90173E-001	3.74483E-008	0.00000E+000	7.90000E-001	2.84368E-005	6	..........a	-327.65
	84	8.5	7.60176E-001	1.31933E-008	0.00000E+000	7.60000E-001	1.89368E-005	6	..........a	-327.65
	87	8.8	7.30122E-001	2.60845E-009	0.00000E+000	7.30000E-001	2.36368E-005	6	..........a	-327.65
	90	9.1	7.00211E-001	-3.12094E-009	0.00000E+000	7.00000E-001	3.17035E-005	6	..........a	-327.65
	93	9.4	6.70170E-001	-6.62280E-009	0.00000E+000	6.70000E-001	2.89035E-005	6	..........a	-327.65
	96	9.7	6.40154E-001	-8.98232E-009	0.00000E+000	6.40000E-001	2.93035E-005	6	..........a	-327.65
	99	10	6.10175E-001	-1.07198E-008	0.00000E+000	6.10000E-001	2.65368E-005	6	..........a	-327.65
	102	10.3	5.80236E-001	-1.20552E-008	0.00000E+000	5.80000E-001	2.53702E-005	6	..........a	-327.65
	105	10.6	5.50195E-001	-1.31932E-008	0.00000E+000	5.50000E-001	3.42368E-005	6	..........a	-327.65
[...]
	1365	136.6	-3.50050E-001	-8.39132E-010	0.00000E+000	-3.50000E-001	3.48702E-005	6	..........a	-327.65
	1366	136.7	-3.40031E-001	1.03176E-011	0.00000E+000	-3.40000E-001	3.48702E-005	6	..........a	-327.65
	1367	136.8	-3.30058E-001	8.38061E-010	0.00000E+000	-3.30000E-001	2.96035E-005	6	..........a	-327.65
	1368	136.9	-3.20013E-001	1.64770E-009	0.00000E+000	-3.20000E-001	3.43702E-005	6	..........a	-327.65
	1369	137	-3.10062E-001	2.47154E-009	0.00000E+000	-3.10000E-001	3.52702E-005	6	..........a	-327.65
	1370	137.1	-3.00029E-001	3.26381E-009	0.00000E+000	-3.00000E-001	3.52035E-005	6	..........a	-327.65
	1371	137.2	-2.90060E-001	4.01966E-009	0.00000E+000	-2.90000E-001	3.51702E-005	6	..........a	-327.65
	1372	137.3	-2.80036E-001	4.80026E-009	0.00000E+000	-2.80000E-001	3.40368E-005	6	..........a	-327.65
	1373	137.4	-2.70025E-001	5.55218E-009	0.00000E+000	-2.70000E-001	3.53035E-005	6	..........a	-327.65
	1374	137.5	-2.60012E-001	6.28246E-009	0.00000E+000	-2.60000E-001	2.82702E-005	6	..........a	-327.65
	1375	137.6	-2.50060E-001	7.00261E-009	0.00000E+000	-2.50000E-001	3.05702E-005	6	..........a	-327.65
	1376	137.7	-2.40013E-001	7.71305E-009	0.00000E+000	-2.40000E-001	3.73368E-005	6	..........a	-327.65
	1377	137.8	-2.30075E-001	8.43173E-009	0.00000E+000	-2.30000E-001	3.13035E-005	6	..........a	-327.65
	1378	137.9	-2.20011E-001	9.11369E-009	0.00000E+000	-2.20000E-001	3.45702E-005	6	..........a	-327.65
	1379	138	-2.10063E-001	9.81737E-009	0.00000E+000	-2.10000E-001	3.44702E-005	6	..........a	-327.65
	1380	138.1	-2.00038E-001	1.05114E-008	0.00000E+000	-2.00000E-001	2.98702E-005	6	..........a	-327.65
	1381	138.2	-1.90103E-001	1.11742E-008	0.00000E+000	-1.90000E-001	3.43369E-005	6	..........a	-327.65
	1382	138.3	-1.80021E-001	1.18533E-008	0.00000E+000	-1.80000E-001	2.77035E-005	6	..........a	-327.65
	1383	138.4	-1.70030E-001	1.25179E-008	0.00000E+000	-1.70000E-001	3.05035E-005	6	..........a	-327.65
	1384	138.5	-1.59990E-001	1.31832E-008	0.00000E+000	-1.60000E-001	2.62368E-005	6	..........a	-327.65
	1385	138.6	-1.50053E-001	1.38688E-008	0.00000E+000	-1.50000E-001	3.04368E-005	6	..........a	-327.65
	1386	138.7	-1.40036E-001	1.45427E-008	0.00000E+000	-1.40000E-001	3.18368E-005	6	..........a	-327.65
	1387	138.8	-1.30063E-001	1.52168E-008	0.00000E+000	-1.30000E-001	3.51035E-005	6	..........a	-327.65
	1388	138.9	-1.20017E-001	1.59157E-008	0.00000E+000	-1.20000E-001	3.23035E-005	6	..........a	-327.65
	1389	139	-1.10057E-001	1.65841E-008	0.00000E+000	-1.10000E-001	3.11368E-005	6	..........a	-327.65
	1390	139.1	-1.00039E-001	1.72596E-008	0.00000E+000	-1.00000E-001	2.75702E-005	6	..........a	-327.65
	1391	139.2	-9.00483E-002	1.79544E-008	0.00000E+000	-9.00000E-002	3.05368E-005	6	..........a	-327.65
	1392	139.3	-8.00283E-002	1.86803E-008	0.00000E+000	-8.00000E-002	2.50368E-005	6	..........a	-327.65
	1393	139.4	-7.00363E-002	1.93605E-008	0.00000E+000	-7.00000E-002	2.61368E-005	6	..........a	-327.65
	1394	139.5	-6.00221E-002	2.00849E-008	0.00000E+000	-6.00000E-002	2.92702E-005	6	..........a	-327.65
	1395	139.6	-5.00773E-002	2.08424E-008	0.00000E+000	-5.00000E-002	2.61368E-005	6	..........a	-327.65
	1396	139.7	-4.00326E-002	2.15890E-008	0.00000E+000	-4.00000E-002	2.95702E-005	6	..........a	-327.65
	1397	139.8	-3.00702E-002	2.23857E-008	0.00000E+000	-3.00000E-002	3.28035E-005	6	..........a	-327.65
	1398	139.9	-2.00052E-002	2.31715E-008	0.00000E+000	-2.00000E-002	3.25035E-005	6	..........a	-327.65
	1399	140	-1.00502E-002	2.39789E-008	0.00000E+000	-1.00000E-002	2.69035E-005	6	..........a	-327.65
	1400	140.1	5.26856E-005	2.48267E-008	0.00000E+000	7.45058E-009	3.22702E-005	6	..........a	-327.65