Folder: StimNET/Figure 1F/data

Note: README.md
# StimNET
Code and data for Lycke et al., Low-threshold, high-resolution, chronically stable intracortical microstimulation by ultraflexible electrodes, Cell Reports (2023), https://doi.org/10.1016/j.celrep.2023.112554

File: 0pulses.DTA
EXPLAIN
TAG	CV
TITLE	LABEL	Cyclic Voltammetry	Test &Identifier
DATE	LABEL	8/19/2021	Date
TIME	LABEL	17:32:37	Time
NOTES	NOTES	1	&Notes...

PSTAT	PSTAT	REF600P-40007	Potentiostat
VINIT	POTEN	0.00000E+000	F	Initial &E (V)
VLIMIT1	POTEN	8.00000E-001	F	Scan Limit &1 (V)
VLIMIT2	POTEN	-6.00000E-001	F	Scan Limit &2 (V)
VFINAL	POTEN	0.00000E+000	F	Final &E (V)
SCANRATE	QUANT	9.99998E+001	&Scan Rate (mV/s)
STEPSIZE	QUANT	1.00000E+001	St&ep Size (mV)
CYCLES	IQUANT	5	C&ycles (#)
IMODE	SELECTOR	0	I/E Range &Mode
IRANGE	QUANT	3.00000E-001	&Max Current (mA)
AREA	QUANT	2.87000E-005	Electrode &Area (cm^2)
ELECTRODETYPE	SELECTOR	0	Electrode Type
STRIPPING	TOGGLE	F	Used for Stripping
POLARITY	TOGGLE	F	Signal Polarity
CONDIT	TWOPARAM	F	1.50000E+001	0.00000E+000	Conditionin&g	Time(s)	E(V)
DELAY	TWOPARAM	T	5.00000E+000	0.00000E+000	Init. De&lay	Time(s)	Stab.(mV/s)
EQDELAY	QUANT	5.00000E+000	Equil. &Time (s)
IRCOMP	SELECTOR	0	IRCom&p
PFCOR	QUANT	5.00000E+001	PF Corr. (ohm)
SAMPLINGMODE	SELECTOR	2	Sampling &Mode
OCVCURVE	TABLE	19
	Pt	T	Vf	Vm	Ach	Over	Temp
	#	s	V vs. Ref.	V	V	bits	deg C
	0	0.258333	5.06222E-001	5.06222E-001	1.14989E-003	..........a	-327.64
	1	0.516667	5.06295E-001	5.10012E-001	1.15135E-003	..........a	-327.64
	2	0.775	5.06741E-001	5.13690E-001	1.14735E-003	..........a	-327.64
	3	1.03333	5.07978E-001	5.15625E-001	1.15555E-003	..........a	-327.64
	4	1.29167	5.10043E-001	5.16099E-001	1.13915E-003	..........a	-327.64
	5	1.55	5.12394E-001	5.16534E-001	1.14242E-003	..........a	-327.64
	6	1.80833	5.14369E-001	5.16838E-001	1.14649E-003	..........a	-327.64
	7	2.06667	5.15680E-001	5.17186E-001	1.14969E-003	..........a	-327.64
	8	2.325	5.16431E-001	5.17318E-001	1.15162E-003	..........a	-327.64
	9	2.58333	5.16841E-001	5.16916E-001	1.14395E-003	..........a	-327.64
	10	2.84167	5.17076E-001	5.18453E-001	1.14202E-003	..........a	-327.64
	11	3.1	5.17315E-001	5.20331E-001	1.14782E-003	..........a	-327.64
	12	3.35833	5.17796E-001	5.20395E-001	1.14389E-003	..........a	-327.64
	13	3.61667	5.18572E-001	5.20162E-001	1.14422E-003	..........a	-327.64
	14	3.875	5.19385E-001	5.20354E-001	1.14549E-003	..........a	-327.64
	15	4.13333	5.19967E-001	5.20842E-001	1.14502E-003	..........a	-327.64
	16	4.39167	5.20306E-001	5.21240E-001	1.15009E-003	..........a	-327.64
	17	4.65	5.20559E-001	5.21498E-001	1.15222E-003	..........a	-327.64
	18	4.90833	5.20833E-001	5.21641E-001	1.14975E-003	..........a	-327.64
EOC	QUANT	0.5208333	Open Circuit (V)
PSTATMODEL	IQUANT	7	Pstat Model
PSTATSECTION	LABEL	REF600P-40007	Pstat Section
PSTATSERIALNO	LABEL	40007	Pstat Serial Number
CTRLMODE	IQUANT	1	Control Mode
ELECTROMETER	IQUANT	0	RE=0 or CS=1
IESTAB	IQUANT	2	I/E Stability
CASPEED	IQUANT	4	Control Amp Speed
CONVENTION	IQUANT	1	Current Convention
ICHRANGE	IQUANT	2	Ich Range
ICHRANGEMODE	TOGGLE	F	Ich Auto Range
ICHOFFSETENABLE	TOGGLE	F	Ich Offset Enable
ICHOFFSET	QUANT	0	Ich Offset (V)
ICHFILTER	IQUANT	2	Ich Filter
VCHRANGE	IQUANT	2	Vch Range
VCHRANGEMODE	TOGGLE	F	Vch Auto Range
VCHOFFSETENABLE	TOGGLE	F	Vch Offset Enable
VCHOFFSET	QUANT	0	Vch Offset (V)
VCHFILTER	IQUANT	2	Vch Filter
ACHRANGE	IQUANT	2	Ach Range
ACHOFFSETENABLE	TOGGLE	F	Ach Offset Enable
ACHOFFSET	QUANT	0	Ach Offset (V)
ACHFILTER	IQUANT	1	Ach Filter
IERANGELOWERLIMIT	IQUANT	1	I/E Range Lower Limit
IERANGEMODE	TOGGLE	T	I/E AutoRange
IERANGE	IQUANT	8	I/E Range
POSFEEDENABLE	TOGGLE	F	Positive Feedback IR Comp
POSFEEDRESISTANCE	QUANT	0	Positive Feedback Resistance (ohm)
ACHSELECT	IQUANT	0	Ach Select
SENSECABLEID	IQUANT	7	Sense Cable ID
PWRCABLEID	IQUANT	7	Power Cable ID
DCCALDATE	LABEL	8/13/2021	DC Calibration Date
ACCALDATE	LABEL	8/13/2021	AC Calibration Date
THERMOSELECT	IQUANT	1	Thermo Select
FRAMEWORKVERSION	LABEL	7.8.1	Framework Version
INSTRUMENTVERSION	LABEL	4.40	Instrument Version
CURVE1	TABLE
	Pt	T	Vf	Im	Vu	Sig	Ach	IERange	Over	Temp
	#	s	V vs. Ref.	A	V	V	V	#	bits	deg C
	0	0.1	-2.30231E-004	1.30420E-007	0.00000E+000	7.45058E-009	1.13885E-003	8	..........a	-327.64
	3	0.4	2.99101E-002	5.00256E-009	0.00000E+000	3.00000E-002	1.12812E-003	6	..........a	-327.64
	6	0.7	5.99220E-002	6.09605E-009	0.00000E+000	6.00000E-002	4.71875E-005	6	..........a	-327.64
	9	1	8.98850E-002	6.89205E-009	0.00000E+000	9.00000E-002	4.39875E-005	6	..........a	-327.64
	12	1.3	1.19859E-001	7.58259E-009	0.00000E+000	1.20000E-001	4.43208E-005	6	..........a	-327.64
	15	1.6	1.49902E-001	8.18656E-009	0.00000E+000	1.50000E-001	4.58875E-005	6	..........a	-327.64
	18	1.9	1.79899E-001	8.76177E-009	0.00000E+000	1.80000E-001	3.91208E-005	6	..........a	-327.64
	21	2.2	2.09900E-001	9.26448E-009	0.00000E+000	2.10000E-001	4.03875E-005	6	..........a	-327.64
	24	2.5	2.39908E-001	9.77956E-009	0.00000E+000	2.40000E-001	4.48541E-005	6	..........a	-327.64
	27	2.8	2.69860E-001	1.02722E-008	0.00000E+000	2.70000E-001	3.85875E-005	6	..........a	-327.64
	30	3.1	2.99915E-001	1.07578E-008	0.00000E+000	3.00000E-001	4.04875E-005	6	..........a	-327.64
	33	3.4	3.29892E-001	1.12794E-008	0.00000E+000	3.30000E-001	3.94541E-005	6	..........a	-327.64
	36	3.7	3.59864E-001	1.17720E-008	0.00000E+000	3.60000E-001	4.02541E-005	6	..........a	-327.64
	39	4	3.89905E-001	1.22613E-008	0.00000E+000	3.90000E-001	5.01541E-005	6	..........a	-327.64
	42	4.3	4.19991E-001	1.27408E-008	0.00000E+000	4.20000E-001	4.03208E-005	6	..........a	-327.64
	45	4.6	4.49949E-001	1.32378E-008	0.00000E+000	4.50000E-001	4.43541E-005	6	..........a	-327.64
	48	4.9	4.79941E-001	1.37051E-008	0.00000E+000	4.80000E-001	4.56541E-005	6	..........a	-327.64
	51	5.2	5.09951E-001	1.42298E-008	0.00000E+000	5.10000E-001	4.31541E-005	6	..........a	-327.64
	54	5.5	5.39965E-001	1.48383E-008	0.00000E+000	5.40000E-001	4.38208E-005	6	..........a	-327.64
	57	5.8	5.69961E-001	1.57836E-008	0.00000E+000	5.70000E-001	5.08875E-005	6	..........a	-327.64
	60	6.1	5.99970E-001	1.71287E-008	0.00000E+000	6.00000E-001	4.20208E-005	6	..........a	-327.64
	63	6.4	6.29959E-001	1.88571E-008	0.00000E+000	6.30000E-001	3.45875E-005	6	..........a	-327.64
	66	6.7	6.59965E-001	2.08468E-008	0.00000E+000	6.60000E-001	3.69541E-005	6	..........a	-327.64
	69	7	6.89950E-001	2.30002E-008	0.00000E+000	6.90000E-001	3.45208E-005	6	..........a	-327.64
	72	7.3	7.19923E-001	2.53325E-008	0.00000E+000	7.20000E-001	3.37875E-005	6	..........a	-327.64
	75	7.6	7.49956E-001	2.78099E-008	0.00000E+000	7.50000E-001	3.23875E-005	6	..........a	-327.64
	78	7.9	7.79975E-001	3.05463E-008	0.00000E+000	7.80000E-001	3.65541E-005	6	..........a	-327.64
	81	8.2	7.89979E-001	1.59615E-008	0.00000E+000	7.90000E-001	3.21875E-005	6	..........a	-327.64
	84	8.5	7.60036E-001	4.88223E-009	0.00000E+000	7.60000E-001	3.88541E-005	6	..........a	-327.64
	87	8.8	7.29968E-001	-1.93480E-011	0.00000E+000	7.30000E-001	3.78875E-005	6	..........a	-327.64
	90	9.1	7.00029E-001	-2.72218E-009	0.00000E+000	7.00000E-001	4.40875E-005	6	..........a	-327.64
	93	9.4	6.69986E-001	-4.44868E-009	0.00000E+000	6.70000E-001	3.75875E-005	6	..........a	-327.64
	96	9.7	6.39971E-001	-5.62346E-009	0.00000E+000	6.40000E-001	4.78875E-005	6	..........a	-327.64
	99	10	6.10003E-001	-6.50956E-009	0.00000E+000	6.10000E-001	3.94875E-005	6	..........a	-327.64
	102	10.3	5.80014E-001	-7.24604E-009	0.00000E+000	5.80000E-001	4.15875E-005	6	..........a	-327.64
	105	10.6	5.50006E-001	-7.82734E-009	0.00000E+000	5.50000E-001	4.03541E-005	6	..........a	-327.64
[...]
	1365	136.6	-3.50221E-001	3.88107E-009	0.00000E+000	-3.50000E-001	3.47541E-005	6	..........a	-327.64
	1366	136.7	-3.40222E-001	4.42566E-009	0.00000E+000	-3.40000E-001	3.32541E-005	6	..........a	-327.64
	1367	136.8	-3.30225E-001	4.81971E-009	0.00000E+000	-3.30000E-001	3.53208E-005	6	..........a	-327.64
	1368	136.9	-3.20208E-001	5.20612E-009	0.00000E+000	-3.20000E-001	3.88541E-005	6	..........a	-327.64
	1369	137	-3.10221E-001	5.47013E-009	0.00000E+000	-3.10000E-001	3.76208E-005	6	..........a	-327.64
	1370	137.1	-3.00195E-001	5.87052E-009	0.00000E+000	-3.00000E-001	3.47875E-005	6	..........a	-327.64
	1371	137.2	-2.90180E-001	6.26437E-009	0.00000E+000	-2.90000E-001	3.78208E-005	6	..........a	-327.64
	1372	137.3	-2.80243E-001	6.59523E-009	0.00000E+000	-2.80000E-001	3.44541E-005	6	..........a	-327.64
	1373	137.4	-2.70193E-001	7.11328E-009	0.00000E+000	-2.70000E-001	3.47208E-005	6	..........a	-327.64
	1374	137.5	-2.60200E-001	7.56518E-009	0.00000E+000	-2.60000E-001	3.73541E-005	6	..........a	-327.64
	1375	137.6	-2.50214E-001	8.11238E-009	0.00000E+000	-2.50000E-001	3.51875E-005	6	..........a	-327.64
	1376	137.7	-2.40277E-001	8.67167E-009	0.00000E+000	-2.40000E-001	3.54875E-005	6	..........a	-327.64
	1377	137.8	-2.30233E-001	9.25061E-009	0.00000E+000	-2.30000E-001	3.79875E-005	6	..........a	-327.64
	1378	137.9	-2.20182E-001	9.80654E-009	0.00000E+000	-2.20000E-001	3.52208E-005	6	..........a	-327.64
	1379	138	-2.10211E-001	1.04135E-008	0.00000E+000	-2.10000E-001	3.55208E-005	6	..........a	-327.64
	1380	138.1	-2.00237E-001	1.09857E-008	0.00000E+000	-2.00000E-001	3.48875E-005	6	..........a	-327.64
	1381	138.2	-1.90256E-001	1.15854E-008	0.00000E+000	-1.90000E-001	3.54208E-005	6	..........a	-327.64
	1382	138.3	-1.80214E-001	1.21640E-008	0.00000E+000	-1.80000E-001	3.64875E-005	6	..........a	-327.64
	1383	138.4	-1.70193E-001	1.27021E-008	0.00000E+000	-1.70000E-001	3.68208E-005	6	..........a	-327.64
	1384	138.5	-1.60244E-001	1.32771E-008	0.00000E+000	-1.60000E-001	3.49875E-005	6	..........a	-327.64
	1385	138.6	-1.50220E-001	1.38523E-008	0.00000E+000	-1.50000E-001	3.55541E-005	6	..........a	-327.64
	1386	138.7	-1.40258E-001	1.43712E-008	0.00000E+000	-1.40000E-001	3.52541E-005	6	..........a	-327.64
	1387	138.8	-1.30216E-001	1.48800E-008	0.00000E+000	-1.30000E-001	3.34875E-005	6	..........a	-327.64
	1388	138.9	-1.20205E-001	1.54044E-008	0.00000E+000	-1.20000E-001	3.52541E-005	6	..........a	-327.64
	1389	139	-1.10185E-001	1.58992E-008	0.00000E+000	-1.10000E-001	3.54208E-005	6	..........a	-327.64
	1390	139.1	-1.00227E-001	1.64416E-008	0.00000E+000	-1.00000E-001	3.07875E-005	6	..........a	-327.64
	1391	139.2	-9.02035E-002	1.68713E-008	0.00000E+000	-9.00000E-002	2.39541E-005	6	..........a	-327.64
	1392	139.3	-8.02532E-002	1.74006E-008	0.00000E+000	-8.00000E-002	3.10541E-005	6	..........a	-327.64
	1393	139.4	-7.01953E-002	1.78894E-008	0.00000E+000	-7.00000E-002	2.93541E-005	6	..........a	-327.64
	1394	139.5	-6.02115E-002	1.83448E-008	0.00000E+000	-6.00000E-002	3.23208E-005	6	..........a	-327.64
	1395	139.6	-5.02293E-002	1.88158E-008	0.00000E+000	-5.00000E-002	2.90541E-005	6	..........a	-327.64
	1396	139.7	-4.02133E-002	1.92712E-008	0.00000E+000	-4.00000E-002	3.16541E-005	6	..........a	-327.64
	1397	139.8	-3.02237E-002	1.97073E-008	0.00000E+000	-3.00000E-002	3.38875E-005	6	..........a	-327.64
	1398	139.9	-2.01912E-002	2.01735E-008	0.00000E+000	-2.00000E-002	3.14875E-005	6	..........a	-327.64
	1399	140	-1.02142E-002	2.06117E-008	0.00000E+000	-1.00000E-002	2.92541E-005	6	..........a	-327.64
	1400	140.1	-2.36556E-004	2.10485E-008	0.00000E+000	7.45058E-009	2.85875E-005	6	..........a	-327.64

File: 2.5M.DTA
EXPLAIN
TAG	CV
TITLE	LABEL	Cyclic Voltammetry	Test &Identifier
DATE	LABEL	8/23/2021	Date
TIME	LABEL	12:55:54	Time
NOTES	NOTES	1	&Notes...

PSTAT	PSTAT	REF600P-40007	Potentiostat
VINIT	POTEN	0.00000E+000	F	Initial &E (V)
VLIMIT1	POTEN	8.00000E-001	F	Scan Limit &1 (V)
VLIMIT2	POTEN	-6.00000E-001	F	Scan Limit &2 (V)
VFINAL	POTEN	0.00000E+000	F	Final &E (V)
SCANRATE	QUANT	9.99998E+001	&Scan Rate (mV/s)
STEPSIZE	QUANT	1.00000E+001	St&ep Size (mV)
CYCLES	IQUANT	5	C&ycles (#)
IMODE	SELECTOR	0	I/E Range &Mode
IRANGE	QUANT	3.00000E-001	&Max Current (mA)
AREA	QUANT	2.87000E-005	Electrode &Area (cm^2)
ELECTRODETYPE	SELECTOR	0	Electrode Type
STRIPPING	TOGGLE	F	Used for Stripping
POLARITY	TOGGLE	F	Signal Polarity
CONDIT	TWOPARAM	F	1.50000E+001	0.00000E+000	Conditionin&g	Time(s)	E(V)
DELAY	TWOPARAM	T	5.00000E+000	0.00000E+000	Init. De&lay	Time(s)	Stab.(mV/s)
EQDELAY	QUANT	5.00000E+000	Equil. &Time (s)
IRCOMP	SELECTOR	0	IRCom&p
PFCOR	QUANT	5.00000E+001	PF Corr. (ohm)
SAMPLINGMODE	SELECTOR	2	Sampling &Mode
OCVCURVE	TABLE	19
	Pt	T	Vf	Vm	Ach	Over	Temp
	#	s	V vs. Ref.	V	V	bits	deg C
	0	0.258333	1.52971E-001	1.52971E-001	1.18240E-003	..........a	-327.65
	1	0.516667	1.52944E-001	1.51547E-001	1.17200E-003	..........a	-327.65
	2	0.775	1.52807E-001	1.51778E-001	1.17120E-003	..........a	-327.65
	3	1.03333	1.52520E-001	1.51990E-001	1.17574E-003	..........a	-327.65
	4	1.29167	1.52197E-001	1.52043E-001	1.16894E-003	..........a	-327.65
	5	1.55	1.51995E-001	1.52058E-001	1.17380E-003	..........a	-327.65
	6	1.80833	1.51946E-001	1.52073E-001	1.17227E-003	..........a	-327.65
	7	2.06667	1.51977E-001	1.52000E-001	1.17907E-003	..........a	-327.65
	8	2.325	1.52017E-001	1.52006E-001	1.16454E-003	..........a	-327.65
	9	2.58333	1.52031E-001	1.51915E-001	1.17974E-003	..........a	-327.65
	10	2.84167	1.52017E-001	1.51929E-001	1.16600E-003	..........a	-327.65
	11	3.1	1.51988E-001	1.51940E-001	1.18167E-003	..........a	-327.65
	12	3.35833	1.51960E-001	1.51955E-001	1.17174E-003	..........a	-327.65
	13	3.61667	1.51944E-001	1.51953E-001	1.17674E-003	..........a	-327.65
	14	3.875	1.51941E-001	1.51956E-001	1.17434E-003	..........a	-327.65
	15	4.13333	1.51946E-001	1.51965E-001	1.16387E-003	..........a	-327.65
	16	4.39167	1.51952E-001	1.51956E-001	1.16674E-003	..........a	-327.65
	17	4.65	1.51956E-001	1.51964E-001	1.17154E-003	..........a	-327.65
	18	4.90833	1.51959E-001	1.51961E-001	1.17620E-003	..........a	-327.65
EOC	QUANT	0.1519592	Open Circuit (V)
PSTATMODEL	IQUANT	7	Pstat Model
PSTATSECTION	LABEL	REF600P-40007	Pstat Section
PSTATSERIALNO	LABEL	40007	Pstat Serial Number
CTRLMODE	IQUANT	1	Control Mode
ELECTROMETER	IQUANT	0	RE=0 or CS=1
IESTAB	IQUANT	2	I/E Stability
CASPEED	IQUANT	4	Control Amp Speed
CONVENTION	IQUANT	1	Current Convention
ICHRANGE	IQUANT	2	Ich Range
ICHRANGEMODE	TOGGLE	F	Ich Auto Range
ICHOFFSETENABLE	TOGGLE	F	Ich Offset Enable
ICHOFFSET	QUANT	0	Ich Offset (V)
ICHFILTER	IQUANT	2	Ich Filter
VCHRANGE	IQUANT	2	Vch Range
VCHRANGEMODE	TOGGLE	F	Vch Auto Range
VCHOFFSETENABLE	TOGGLE	F	Vch Offset Enable
VCHOFFSET	QUANT	0	Vch Offset (V)
VCHFILTER	IQUANT	2	Vch Filter
ACHRANGE	IQUANT	2	Ach Range
ACHOFFSETENABLE	TOGGLE	F	Ach Offset Enable
ACHOFFSET	QUANT	0	Ach Offset (V)
ACHFILTER	IQUANT	1	Ach Filter
IERANGELOWERLIMIT	IQUANT	1	I/E Range Lower Limit
IERANGEMODE	TOGGLE	T	I/E AutoRange
IERANGE	IQUANT	8	I/E Range
POSFEEDENABLE	TOGGLE	F	Positive Feedback IR Comp
POSFEEDRESISTANCE	QUANT	0	Positive Feedback Resistance (ohm)
ACHSELECT	IQUANT	0	Ach Select
SENSECABLEID	IQUANT	7	Sense Cable ID
PWRCABLEID	IQUANT	7	Power Cable ID
DCCALDATE	LABEL	8/21/2021	DC Calibration Date
ACCALDATE	LABEL	8/21/2021	AC Calibration Date
THERMOSELECT	IQUANT	1	Thermo Select
FRAMEWORKVERSION	LABEL	7.8.1	Framework Version
INSTRUMENTVERSION	LABEL	4.40	Instrument Version
CURVE1	TABLE
	Pt	T	Vf	Im	Vu	Sig	Ach	IERange	Over	Temp
	#	s	V vs. Ref.	A	V	V	V	#	bits	deg C
	0	0.1	1.01859E-004	1.29863E-007	0.00000E+000	7.45058E-009	1.15587E-003	8	..........a	-327.65
	3	0.4	3.00938E-002	1.36421E-008	0.00000E+000	3.00000E-002	1.14104E-003	6	..........a	-327.65
	6	0.7	6.01124E-002	1.70349E-008	0.00000E+000	6.00000E-002	5.03368E-005	6	..........a	-327.65
	9	1	9.00436E-002	1.96407E-008	0.00000E+000	9.00000E-002	5.02035E-005	6	..........a	-327.65
	12	1.3	1.20074E-001	2.19467E-008	0.00000E+000	1.20000E-001	4.71702E-005	6	..........a	-327.65
	15	1.6	1.50093E-001	2.39503E-008	0.00000E+000	1.50000E-001	5.01368E-005	6	..........a	-327.65
	18	1.9	1.80089E-001	2.58374E-008	0.00000E+000	1.80000E-001	4.92702E-005	6	..........a	-327.65
	21	2.2	2.10092E-001	2.77169E-008	0.00000E+000	2.10000E-001	5.29035E-005	6	..........a	-327.65
	24	2.5	2.40107E-001	2.96448E-008	0.00000E+000	2.40000E-001	4.89368E-005	6	..........a	-327.65
	27	2.8	2.70038E-001	3.12990E-008	0.00000E+000	2.70000E-001	4.42368E-005	6	..........a	-327.65
	30	3.1	3.00134E-001	3.22929E-008	0.00000E+000	3.00000E-001	3.92702E-005	6	..........a	-327.65
	33	3.4	3.30081E-001	3.26465E-008	0.00000E+000	3.30000E-001	4.64702E-005	6	..........a	-327.65
	36	3.7	3.60066E-001	3.25713E-008	0.00000E+000	3.60000E-001	4.96702E-005	6	..........a	-327.65
	39	4	3.90086E-001	3.22317E-008	0.00000E+000	3.90000E-001	4.84369E-005	6	..........a	-327.65
	42	4.3	4.20160E-001	3.18705E-008	0.00000E+000	4.20000E-001	4.81035E-005	6	..........a	-327.65
	45	4.6	4.50122E-001	3.15655E-008	0.00000E+000	4.50000E-001	4.62702E-005	6	..........a	-327.65
	48	4.9	4.80131E-001	3.13772E-008	0.00000E+000	4.80000E-001	4.97702E-005	6	..........a	-327.65
	51	5.2	5.10137E-001	3.12351E-008	0.00000E+000	5.10000E-001	4.79368E-005	6	..........a	-327.65
	54	5.5	5.40159E-001	3.11653E-008	0.00000E+000	5.40000E-001	4.61035E-005	6	..........a	-327.65
	57	5.8	5.70164E-001	3.11787E-008	0.00000E+000	5.70000E-001	4.62368E-005	6	..........a	-327.65
	60	6.1	6.00158E-001	3.12815E-008	0.00000E+000	6.00000E-001	5.36702E-005	6	..........a	-327.65
	63	6.4	6.30136E-001	3.16151E-008	0.00000E+000	6.30000E-001	4.80702E-005	6	..........a	-327.65
	66	6.7	6.60144E-001	3.23214E-008	0.00000E+000	6.60000E-001	4.43368E-005	6	..........a	-327.65
	69	7	6.90144E-001	3.34613E-008	0.00000E+000	6.90000E-001	4.89702E-005	6	..........a	-327.65
	72	7.3	7.20121E-001	3.52647E-008	0.00000E+000	7.20000E-001	4.86702E-005	6	..........a	-327.65
	75	7.6	7.50146E-001	3.80688E-008	0.00000E+000	7.50000E-001	4.95368E-005	6	..........a	-327.65
	78	7.9	7.80163E-001	4.20884E-008	0.00000E+000	7.80000E-001	5.36702E-005	6	..........a	-327.65
	81	8.2	7.90176E-001	1.49306E-008	0.00000E+000	7.90000E-001	4.81368E-005	6	..........a	-327.65
	84	8.5	7.60200E-001	-1.93669E-009	0.00000E+000	7.60000E-001	5.45035E-005	6	..........a	-327.65
	87	8.8	7.30123E-001	-8.67310E-009	0.00000E+000	7.30000E-001	5.41702E-005	6	..........a	-327.65
	90	9.1	7.00216E-001	-1.21514E-008	0.00000E+000	7.00000E-001	5.35368E-005	6	..........a	-327.65
	93	9.4	6.70179E-001	-1.41942E-008	0.00000E+000	6.70000E-001	5.30702E-005	6	..........a	-327.65
	96	9.7	6.40164E-001	-1.55351E-008	0.00000E+000	6.40000E-001	5.93368E-005	6	..........a	-327.65
	99	10	6.10191E-001	-1.64963E-008	0.00000E+000	6.10000E-001	5.63702E-005	6	..........a	-327.65
	102	10.3	5.80243E-001	-1.71996E-008	0.00000E+000	5.80000E-001	6.10702E-005	6	..........a	-327.65
	105	10.6	5.50210E-001	-1.77798E-008	0.00000E+000	5.50000E-001	5.77369E-005	6	..........a	-327.65
[...]
	1365	136.6	-3.50026E-001	7.85286E-009	0.00000E+000	-3.50000E-001	3.49035E-005	6	..........a	-327.65
	1366	136.7	-3.40021E-001	8.72428E-009	0.00000E+000	-3.40000E-001	3.65035E-005	6	..........a	-327.65
	1367	136.8	-3.30035E-001	9.49971E-009	0.00000E+000	-3.30000E-001	3.55035E-005	6	..........a	-327.65
	1368	136.9	-3.20000E-001	1.01865E-008	0.00000E+000	-3.20000E-001	3.11368E-005	6	..........a	-327.65
	1369	137	-3.10040E-001	1.07890E-008	0.00000E+000	-3.10000E-001	3.80702E-005	6	..........a	-327.65
	1370	137.1	-3.00007E-001	1.14201E-008	0.00000E+000	-3.00000E-001	4.07035E-005	6	..........a	-327.65
	1371	137.2	-2.90031E-001	1.20176E-008	0.00000E+000	-2.90000E-001	3.74702E-005	6	..........a	-327.65
	1372	137.3	-2.80025E-001	1.26308E-008	0.00000E+000	-2.80000E-001	3.33702E-005	6	..........a	-327.65
	1373	137.4	-2.70002E-001	1.32210E-008	0.00000E+000	-2.70000E-001	3.35368E-005	6	..........a	-327.65
	1374	137.5	-2.59984E-001	1.38280E-008	0.00000E+000	-2.60000E-001	3.19035E-005	6	..........a	-327.65
	1375	137.6	-2.50032E-001	1.44639E-008	0.00000E+000	-2.50000E-001	3.45702E-005	6	..........a	-327.65
	1376	137.7	-2.40011E-001	1.50762E-008	0.00000E+000	-2.40000E-001	3.83702E-005	6	..........a	-327.65
	1377	137.8	-2.30047E-001	1.57557E-008	0.00000E+000	-2.30000E-001	3.25035E-005	6	..........a	-327.65
	1378	137.9	-2.19981E-001	1.64254E-008	0.00000E+000	-2.20000E-001	2.83702E-005	6	..........a	-327.65
	1379	138	-2.10035E-001	1.70940E-008	0.00000E+000	-2.10000E-001	2.84035E-005	6	..........a	-327.65
	1380	138.1	-2.00021E-001	1.77496E-008	0.00000E+000	-2.00000E-001	2.70702E-005	6	..........a	-327.65
	1381	138.2	-1.90080E-001	1.84255E-008	0.00000E+000	-1.90000E-001	2.98035E-005	6	..........a	-327.65
	1382	138.3	-1.79995E-001	1.90920E-008	0.00000E+000	-1.80000E-001	3.24702E-005	6	..........a	-327.65
	1383	138.4	-1.70002E-001	1.97464E-008	0.00000E+000	-1.70000E-001	2.96702E-005	6	..........a	-327.65
	1384	138.5	-1.59982E-001	2.04351E-008	0.00000E+000	-1.60000E-001	2.60035E-005	6	..........a	-327.65
	1385	138.6	-1.50029E-001	2.10769E-008	0.00000E+000	-1.50000E-001	2.63368E-005	6	..........a	-327.65
	1386	138.7	-1.40035E-001	2.17300E-008	0.00000E+000	-1.40000E-001	2.56369E-005	6	..........a	-327.65
	1387	138.8	-1.30042E-001	2.24014E-008	0.00000E+000	-1.30000E-001	2.67035E-005	6	..........a	-327.65
	1388	138.9	-1.19998E-001	2.30586E-008	0.00000E+000	-1.20000E-001	2.74702E-005	6	..........a	-327.65
	1389	139	-1.10029E-001	2.37099E-008	0.00000E+000	-1.10000E-001	2.57368E-005	6	..........a	-327.65
	1390	139.1	-1.00019E-001	2.43629E-008	0.00000E+000	-1.00000E-001	2.46035E-005	6	..........a	-327.65
	1391	139.2	-9.00224E-002	2.50425E-008	0.00000E+000	-9.00000E-002	2.56035E-005	6	..........a	-327.65
	1392	139.3	-8.00217E-002	2.57357E-008	0.00000E+000	-8.00000E-002	3.42702E-005	6	..........a	-327.65
	1393	139.4	-7.00125E-002	2.64493E-008	0.00000E+000	-7.00000E-002	2.76368E-005	6	..........a	-327.65
	1394	139.5	-6.00221E-002	2.71444E-008	0.00000E+000	-6.00000E-002	2.63368E-005	6	..........a	-327.65
	1395	139.6	-5.00551E-002	2.78863E-008	0.00000E+000	-5.00000E-002	2.32035E-005	6	..........a	-327.65
	1396	139.7	-4.00172E-002	2.86475E-008	0.00000E+000	-4.00000E-002	2.34368E-005	6	..........a	-327.65
	1397	139.8	-3.00526E-002	2.93940E-008	0.00000E+000	-3.00000E-002	2.25702E-005	6	..........a	-327.65
	1398	139.9	-1.99919E-002	3.01302E-008	0.00000E+000	-2.00000E-002	2.02702E-005	6	..........a	-327.65
	1399	140	-1.00465E-002	3.09400E-008	0.00000E+000	-1.00000E-002	2.09035E-005	6	..........a	-327.65
	1400	140.1	6.44042E-005	3.17518E-008	0.00000E+000	7.45058E-009	1.10657E-003	6	..........a	-327.65