Folder: StimNET/Figure 1F/data (part 3)

File: 10M.DTA
EXPLAIN
TAG	CV
TITLE	LABEL	Cyclic Voltammetry	Test &Identifier
DATE	LABEL	8/24/2021	Date
TIME	LABEL	10:00:25	Time
NOTES	NOTES	1	&Notes...

PSTAT	PSTAT	REF600P-40007	Potentiostat
VINIT	POTEN	0.00000E+000	F	Initial &E (V)
VLIMIT1	POTEN	8.00000E-001	F	Scan Limit &1 (V)
VLIMIT2	POTEN	-6.00000E-001	F	Scan Limit &2 (V)
VFINAL	POTEN	0.00000E+000	F	Final &E (V)
SCANRATE	QUANT	9.99998E+001	&Scan Rate (mV/s)
STEPSIZE	QUANT	1.00000E+001	St&ep Size (mV)
CYCLES	IQUANT	5	C&ycles (#)
IMODE	SELECTOR	0	I/E Range &Mode
IRANGE	QUANT	3.00000E-001	&Max Current (mA)
AREA	QUANT	2.87000E-005	Electrode &Area (cm^2)
ELECTRODETYPE	SELECTOR	0	Electrode Type
STRIPPING	TOGGLE	F	Used for Stripping
POLARITY	TOGGLE	F	Signal Polarity
CONDIT	TWOPARAM	F	1.50000E+001	0.00000E+000	Conditionin&g	Time(s)	E(V)
DELAY	TWOPARAM	T	5.00000E+000	0.00000E+000	Init. De&lay	Time(s)	Stab.(mV/s)
EQDELAY	QUANT	5.00000E+000	Equil. &Time (s)
IRCOMP	SELECTOR	0	IRCom&p
PFCOR	QUANT	5.00000E+001	PF Corr. (ohm)
SAMPLINGMODE	SELECTOR	2	Sampling &Mode
OCVCURVE	TABLE	19
	Pt	T	Vf	Vm	Ach	Over	Temp
	#	s	V vs. Ref.	V	V	bits	deg C
	0	0.258333	1.19377E-001	1.19377E-001	1.15334E-003	..........a	-327.65
	1	0.516667	1.19380E-001	1.19545E-001	1.15287E-003	..........a	-327.65
	2	0.775	1.19402E-001	1.19812E-001	1.15647E-003	..........a	-327.65
	3	1.03333	1.19470E-001	1.20073E-001	1.15907E-003	..........a	-327.65
	4	1.29167	1.19607E-001	1.20356E-001	1.16027E-003	..........a	-327.65
	5	1.55	1.19809E-001	1.20610E-001	1.15814E-003	..........a	-327.65
	6	1.80833	1.20054E-001	1.20854E-001	1.16734E-003	..........a	-327.65
	7	2.06667	1.20316E-001	1.21084E-001	1.16520E-003	..........a	-327.65
	8	2.325	1.20575E-001	1.21323E-001	1.16687E-003	..........a	-327.65
	9	2.58333	1.20826E-001	1.21549E-001	1.15514E-003	..........a	-327.65
	10	2.84167	1.21067E-001	1.21808E-001	1.16194E-003	..........a	-327.65
	11	3.1	1.21305E-001	1.22064E-001	1.15700E-003	..........a	-327.65
	12	3.35833	1.21545E-001	1.22297E-001	1.15654E-003	..........a	-327.65
	13	3.61667	1.21789E-001	1.22530E-001	1.15680E-003	..........a	-327.65
	14	3.875	1.22034E-001	1.22775E-001	1.15794E-003	..........a	-327.65
	15	4.13333	1.22276E-001	1.23018E-001	1.16087E-003	..........a	-327.65
	16	4.39167	1.22517E-001	1.23256E-001	1.15494E-003	..........a	-327.65
	17	4.65	1.22757E-001	1.23495E-001	1.15587E-003	..........a	-327.65
	18	4.90833	1.22998E-001	1.23749E-001	1.16760E-003	..........a	-327.65
EOC	QUANT	0.1229976	Open Circuit (V)
PSTATMODEL	IQUANT	7	Pstat Model
PSTATSECTION	LABEL	REF600P-40007	Pstat Section
PSTATSERIALNO	LABEL	40007	Pstat Serial Number
CTRLMODE	IQUANT	1	Control Mode
ELECTROMETER	IQUANT	0	RE=0 or CS=1
IESTAB	IQUANT	2	I/E Stability
CASPEED	IQUANT	4	Control Amp Speed
CONVENTION	IQUANT	1	Current Convention
ICHRANGE	IQUANT	2	Ich Range
ICHRANGEMODE	TOGGLE	F	Ich Auto Range
ICHOFFSETENABLE	TOGGLE	F	Ich Offset Enable
ICHOFFSET	QUANT	0	Ich Offset (V)
ICHFILTER	IQUANT	2	Ich Filter
VCHRANGE	IQUANT	2	Vch Range
VCHRANGEMODE	TOGGLE	F	Vch Auto Range
VCHOFFSETENABLE	TOGGLE	F	Vch Offset Enable
VCHOFFSET	QUANT	0	Vch Offset (V)
VCHFILTER	IQUANT	2	Vch Filter
ACHRANGE	IQUANT	2	Ach Range
ACHOFFSETENABLE	TOGGLE	F	Ach Offset Enable
ACHOFFSET	QUANT	0	Ach Offset (V)
ACHFILTER	IQUANT	1	Ach Filter
IERANGELOWERLIMIT	IQUANT	1	I/E Range Lower Limit
IERANGEMODE	TOGGLE	T	I/E AutoRange
IERANGE	IQUANT	8	I/E Range
POSFEEDENABLE	TOGGLE	F	Positive Feedback IR Comp
POSFEEDRESISTANCE	QUANT	0	Positive Feedback Resistance (ohm)
ACHSELECT	IQUANT	0	Ach Select
SENSECABLEID	IQUANT	7	Sense Cable ID
PWRCABLEID	IQUANT	7	Power Cable ID
DCCALDATE	LABEL	8/21/2021	DC Calibration Date
ACCALDATE	LABEL	8/21/2021	AC Calibration Date
THERMOSELECT	IQUANT	1	Thermo Select
FRAMEWORKVERSION	LABEL	7.8.1	Framework Version
INSTRUMENTVERSION	LABEL	4.40	Instrument Version
CURVE1	TABLE
	Pt	T	Vf	Im	Vu	Sig	Ach	IERange	Over	Temp
	#	s	V vs. Ref.	A	V	V	V	#	bits	deg C
	0	0.1	8.61228E-005	1.67927E-007	0.00000E+000	7.45058E-009	1.13887E-003	8	..........a	-327.65
	3	0.4	3.00924E-002	1.05584E-008	0.00000E+000	3.00000E-002	1.14410E-003	6	..........a	-327.65
	6	0.7	6.01093E-002	1.29269E-008	0.00000E+000	6.00000E-002	4.02702E-005	6	..........a	-327.65
	9	1	9.00307E-002	1.51284E-008	0.00000E+000	9.00000E-002	4.20368E-005	6	..........a	-327.65
	12	1.3	1.20068E-001	1.72916E-008	0.00000E+000	1.20000E-001	4.96369E-005	6	..........a	-327.65
	15	1.6	1.50085E-001	1.94971E-008	0.00000E+000	1.50000E-001	4.48035E-005	6	..........a	-327.65
	18	1.9	1.80079E-001	2.18304E-008	0.00000E+000	1.80000E-001	5.07702E-005	6	..........a	-327.65
	21	2.2	2.10075E-001	2.42363E-008	0.00000E+000	2.10000E-001	4.71368E-005	6	..........a	-327.65
	24	2.5	2.40092E-001	2.64915E-008	0.00000E+000	2.40000E-001	4.13368E-005	6	..........a	-327.65
	27	2.8	2.70029E-001	2.83894E-008	0.00000E+000	2.70000E-001	4.49368E-005	6	..........a	-327.65
	30	3.1	3.00116E-001	2.97361E-008	0.00000E+000	3.00000E-001	4.13035E-005	6	..........a	-327.65
	33	3.4	3.30069E-001	3.05169E-008	0.00000E+000	3.30000E-001	4.15702E-005	6	..........a	-327.65
	36	3.7	3.60056E-001	3.07741E-008	0.00000E+000	3.60000E-001	4.64368E-005	6	..........a	-327.65
	39	4	3.90082E-001	3.05866E-008	0.00000E+000	3.90000E-001	4.13702E-005	6	..........a	-327.65
	42	4.3	4.20148E-001	3.02334E-008	0.00000E+000	4.20000E-001	4.47702E-005	6	..........a	-327.65
	45	4.6	4.50125E-001	2.98689E-008	0.00000E+000	4.50000E-001	4.13702E-005	6	..........a	-327.65
	48	4.9	4.80121E-001	2.95789E-008	0.00000E+000	4.80000E-001	3.84702E-005	6	..........a	-327.65
	51	5.2	5.10121E-001	2.94174E-008	0.00000E+000	5.10000E-001	4.59035E-005	6	..........a	-327.65
	54	5.5	5.40144E-001	2.94263E-008	0.00000E+000	5.40000E-001	4.28035E-005	6	..........a	-327.65
	57	5.8	5.70153E-001	2.95038E-008	0.00000E+000	5.70000E-001	4.47035E-005	6	..........a	-327.65
	60	6.1	6.00144E-001	2.97104E-008	0.00000E+000	6.00000E-001	4.29035E-005	6	..........a	-327.65
	63	6.4	6.30125E-001	3.00450E-008	0.00000E+000	6.30000E-001	4.74702E-005	6	..........a	-327.65
	66	6.7	6.60136E-001	3.06377E-008	0.00000E+000	6.60000E-001	4.48035E-005	6	..........a	-327.65
	69	7	6.90138E-001	3.16524E-008	0.00000E+000	6.90000E-001	4.40035E-005	6	..........a	-327.65
	72	7.3	7.20110E-001	3.30793E-008	0.00000E+000	7.20000E-001	4.86368E-005	6	..........a	-327.65
	75	7.6	7.50131E-001	3.52831E-008	0.00000E+000	7.50000E-001	5.03368E-005	6	..........a	-327.65
	78	7.9	7.80150E-001	3.84934E-008	0.00000E+000	7.80000E-001	4.51035E-005	6	..........a	-327.65
	81	8.2	7.90166E-001	1.11304E-008	0.00000E+000	7.90000E-001	4.01035E-005	6	..........a	-327.65
	84	8.5	7.60187E-001	-9.15221E-010	0.00000E+000	7.60000E-001	4.89035E-005	6	..........a	-327.65
	87	8.8	7.30112E-001	-5.91202E-009	0.00000E+000	7.30000E-001	5.02702E-005	6	..........a	-327.65
	90	9.1	7.00209E-001	-8.57444E-009	0.00000E+000	7.00000E-001	4.91368E-005	6	..........a	-327.65
	93	9.4	6.70169E-001	-1.02502E-008	0.00000E+000	6.70000E-001	4.73035E-005	6	..........a	-327.65
	96	9.7	6.40155E-001	-1.13647E-008	0.00000E+000	6.40000E-001	4.37369E-005	6	..........a	-327.65
	99	10	6.10186E-001	-1.21072E-008	0.00000E+000	6.10000E-001	4.89368E-005	6	..........a	-327.65
	102	10.3	5.80241E-001	-1.27130E-008	0.00000E+000	5.80000E-001	4.59702E-005	6	..........a	-327.65
	105	10.6	5.50200E-001	-1.31658E-008	0.00000E+000	5.50000E-001	4.71368E-005	6	..........a	-327.65
[...]
	1365	136.6	-3.50046E-001	-1.84403E-009	0.00000E+000	-3.50000E-001	5.16035E-005	6	..........a	-327.65
	1366	136.7	-3.40024E-001	-9.66669E-010	0.00000E+000	-3.40000E-001	5.37702E-005	6	..........a	-327.65
	1367	136.8	-3.30055E-001	-5.52016E-011	0.00000E+000	-3.30000E-001	5.74702E-005	6	..........a	-327.65
	1368	136.9	-3.20011E-001	8.24290E-010	0.00000E+000	-3.20000E-001	5.57368E-005	6	..........a	-327.65
	1369	137	-3.10062E-001	1.73116E-009	0.00000E+000	-3.10000E-001	5.38368E-005	6	..........a	-327.65
	1370	137.1	-3.00019E-001	2.58521E-009	0.00000E+000	-3.00000E-001	5.74035E-005	6	..........a	-327.65
	1371	137.2	-2.90055E-001	3.43039E-009	0.00000E+000	-2.90000E-001	5.75035E-005	6	..........a	-327.65
	1372	137.3	-2.80037E-001	4.26373E-009	0.00000E+000	-2.80000E-001	5.11368E-005	6	..........a	-327.65
	1373	137.4	-2.70019E-001	5.06227E-009	0.00000E+000	-2.70000E-001	5.23035E-005	6	..........a	-327.65
	1374	137.5	-2.59994E-001	5.86094E-009	0.00000E+000	-2.60000E-001	5.48368E-005	6	..........a	-327.65
	1375	137.6	-2.50046E-001	6.62523E-009	0.00000E+000	-2.50000E-001	5.27035E-005	6	..........a	-327.65
	1376	137.7	-2.40012E-001	7.37331E-009	0.00000E+000	-2.40000E-001	5.36702E-005	6	..........a	-327.65
	1377	137.8	-2.30063E-001	8.11557E-009	0.00000E+000	-2.30000E-001	5.60702E-005	6	..........a	-327.65
	1378	137.9	-2.20000E-001	8.84575E-009	0.00000E+000	-2.20000E-001	5.41368E-005	6	..........a	-327.65
	1379	138	-2.10056E-001	9.57233E-009	0.00000E+000	-2.10000E-001	5.19035E-005	6	..........a	-327.65
	1380	138.1	-2.00031E-001	1.02756E-008	0.00000E+000	-2.00000E-001	4.96702E-005	6	..........a	-327.65
	1381	138.2	-1.90097E-001	1.09820E-008	0.00000E+000	-1.90000E-001	5.38035E-005	6	..........a	-327.65
	1382	138.3	-1.80009E-001	1.16608E-008	0.00000E+000	-1.80000E-001	5.49035E-005	6	..........a	-327.65
	1383	138.4	-1.70021E-001	1.23588E-008	0.00000E+000	-1.70000E-001	5.15368E-005	6	..........a	-327.65
	1384	138.5	-1.59991E-001	1.30053E-008	0.00000E+000	-1.60000E-001	5.45702E-005	6	..........a	-327.65
	1385	138.6	-1.50047E-001	1.36906E-008	0.00000E+000	-1.50000E-001	5.52702E-005	6	..........a	-327.65
	1386	138.7	-1.40027E-001	1.43784E-008	0.00000E+000	-1.40000E-001	5.10702E-005	6	..........a	-327.65
	1387	138.8	-1.30054E-001	1.50579E-008	0.00000E+000	-1.30000E-001	4.82368E-005	6	..........a	-327.65
	1388	138.9	-1.20012E-001	1.57658E-008	0.00000E+000	-1.20000E-001	4.94368E-005	6	..........a	-327.65
	1389	139	-1.10044E-001	1.64636E-008	0.00000E+000	-1.10000E-001	4.61368E-005	6	..........a	-327.65
	1390	139.1	-1.00027E-001	1.71513E-008	0.00000E+000	-1.00000E-001	4.44368E-005	6	..........a	-327.65
	1391	139.2	-9.00367E-002	1.78913E-008	0.00000E+000	-9.00000E-002	4.33368E-005	6	..........a	-327.65
	1392	139.3	-8.00205E-002	1.86159E-008	0.00000E+000	-8.00000E-002	4.65035E-005	6	..........a	-327.65
	1393	139.4	-7.00222E-002	1.93673E-008	0.00000E+000	-7.00000E-002	4.57368E-005	6	..........a	-327.65
	1394	139.5	-6.00164E-002	2.01232E-008	0.00000E+000	-6.00000E-002	4.69702E-005	6	..........a	-327.65
	1395	139.6	-5.00624E-002	2.09378E-008	0.00000E+000	-5.00000E-002	4.75035E-005	6	..........a	-327.65
	1396	139.7	-4.00198E-002	2.17337E-008	0.00000E+000	-4.00000E-002	4.77035E-005	6	..........a	-327.65
	1397	139.8	-3.00648E-002	2.25474E-008	0.00000E+000	-3.00000E-002	4.58702E-005	6	..........a	-327.65
	1398	139.9	-1.99966E-002	2.33807E-008	0.00000E+000	-2.00000E-002	4.35702E-005	6	..........a	-327.65
	1399	140	-1.00399E-002	2.42923E-008	0.00000E+000	-1.00000E-002	3.92369E-005	6	..........a	-327.65
	1400	140.1	5.54527E-005	2.52256E-008	0.00000E+000	7.45058E-009	3.60035E-005	6	..........a	-327.65

File: 15M.DTA
EXPLAIN
TAG	CV
TITLE	LABEL	Cyclic Voltammetry	Test &Identifier
DATE	LABEL	8/24/2021	Date
TIME	LABEL	15:39:40	Time
NOTES	NOTES	1	&Notes...

PSTAT	PSTAT	REF600P-40007	Potentiostat
VINIT	POTEN	0.00000E+000	F	Initial &E (V)
VLIMIT1	POTEN	8.00000E-001	F	Scan Limit &1 (V)
VLIMIT2	POTEN	-6.00000E-001	F	Scan Limit &2 (V)
VFINAL	POTEN	0.00000E+000	F	Final &E (V)
SCANRATE	QUANT	9.99998E+001	&Scan Rate (mV/s)
STEPSIZE	QUANT	1.00000E+001	St&ep Size (mV)
CYCLES	IQUANT	5	C&ycles (#)
IMODE	SELECTOR	0	I/E Range &Mode
IRANGE	QUANT	3.00000E-001	&Max Current (mA)
AREA	QUANT	2.87000E-005	Electrode &Area (cm^2)
ELECTRODETYPE	SELECTOR	0	Electrode Type
STRIPPING	TOGGLE	F	Used for Stripping
POLARITY	TOGGLE	F	Signal Polarity
CONDIT	TWOPARAM	F	1.50000E+001	0.00000E+000	Conditionin&g	Time(s)	E(V)
DELAY	TWOPARAM	T	5.00000E+000	0.00000E+000	Init. De&lay	Time(s)	Stab.(mV/s)
EQDELAY	QUANT	5.00000E+000	Equil. &Time (s)
IRCOMP	SELECTOR	0	IRCom&p
PFCOR	QUANT	5.00000E+001	PF Corr. (ohm)
SAMPLINGMODE	SELECTOR	2	Sampling &Mode
OCVCURVE	TABLE	19
	Pt	T	Vf	Vm	Ach	Over	Temp
	#	s	V vs. Ref.	V	V	bits	deg C
	0	0.258333	1.40678E-001	1.40678E-001	1.14447E-003	..........a	-327.65
	1	0.516667	1.40680E-001	1.40750E-001	1.13700E-003	..........a	-327.65
	2	0.775	1.40688E-001	1.40810E-001	1.14300E-003	..........a	-327.65
	3	1.03333	1.40711E-001	1.40873E-001	1.14247E-003	..........a	-327.65
	4	1.29167	1.40744E-001	1.40559E-001	1.14394E-003	..........a	-327.65
	5	1.55	1.40759E-001	1.40514E-001	1.13734E-003	..........a	-327.65
	6	1.80833	1.40729E-001	1.40715E-001	1.14747E-003	..........a	-327.65
	7	2.06667	1.40680E-001	1.40931E-001	1.14247E-003	..........a	-327.65
	8	2.325	1.40679E-001	1.41198E-001	1.14807E-003	..........a	-327.65
	9	2.58333	1.40770E-001	1.41522E-001	1.14994E-003	..........a	-327.65
	10	2.84167	1.40950E-001	1.41720E-001	1.14567E-003	..........a	-327.65
	11	3.1	1.41185E-001	1.41809E-001	1.14327E-003	..........a	-327.65
	12	3.35833	1.41425E-001	1.41897E-001	1.14360E-003	..........a	-327.65
	13	3.61667	1.41628E-001	1.42029E-001	1.14614E-003	..........a	-327.65
	14	3.875	1.41783E-001	1.42093E-001	1.14960E-003	..........a	-327.65
	15	4.13333	1.41904E-001	1.42234E-001	1.14660E-003	..........a	-327.65
	16	4.39167	1.42009E-001	1.42332E-001	1.14727E-003	..........a	-327.65
	17	4.65	1.42112E-001	1.42444E-001	1.13620E-003	..........a	-327.65
	18	4.90833	1.42218E-001	1.42582E-001	1.13867E-003	..........a	-327.65
EOC	QUANT	0.1422179	Open Circuit (V)
PSTATMODEL	IQUANT	7	Pstat Model
PSTATSECTION	LABEL	REF600P-40007	Pstat Section
PSTATSERIALNO	LABEL	40007	Pstat Serial Number
CTRLMODE	IQUANT	1	Control Mode
ELECTROMETER	IQUANT	0	RE=0 or CS=1
IESTAB	IQUANT	2	I/E Stability
CASPEED	IQUANT	4	Control Amp Speed
CONVENTION	IQUANT	1	Current Convention
ICHRANGE	IQUANT	2	Ich Range
ICHRANGEMODE	TOGGLE	F	Ich Auto Range
ICHOFFSETENABLE	TOGGLE	F	Ich Offset Enable
ICHOFFSET	QUANT	0	Ich Offset (V)
ICHFILTER	IQUANT	2	Ich Filter
VCHRANGE	IQUANT	2	Vch Range
VCHRANGEMODE	TOGGLE	F	Vch Auto Range
VCHOFFSETENABLE	TOGGLE	F	Vch Offset Enable
VCHOFFSET	QUANT	0	Vch Offset (V)
VCHFILTER	IQUANT	2	Vch Filter
ACHRANGE	IQUANT	2	Ach Range
ACHOFFSETENABLE	TOGGLE	F	Ach Offset Enable
ACHOFFSET	QUANT	0	Ach Offset (V)
ACHFILTER	IQUANT	1	Ach Filter
IERANGELOWERLIMIT	IQUANT	1	I/E Range Lower Limit
IERANGEMODE	TOGGLE	T	I/E AutoRange
IERANGE	IQUANT	8	I/E Range
POSFEEDENABLE	TOGGLE	F	Positive Feedback IR Comp
POSFEEDRESISTANCE	QUANT	0	Positive Feedback Resistance (ohm)
ACHSELECT	IQUANT	0	Ach Select
SENSECABLEID	IQUANT	7	Sense Cable ID
PWRCABLEID	IQUANT	7	Power Cable ID
DCCALDATE	LABEL	8/21/2021	DC Calibration Date
ACCALDATE	LABEL	8/21/2021	AC Calibration Date
THERMOSELECT	IQUANT	1	Thermo Select
FRAMEWORKVERSION	LABEL	7.8.1	Framework Version
INSTRUMENTVERSION	LABEL	4.40	Instrument Version
CURVE1	TABLE
	Pt	T	Vf	Im	Vu	Sig	Ach	IERange	Over	Temp
	#	s	V vs. Ref.	A	V	V	V	#	bits	deg C
	0	0.1	1.05426E-004	1.24442E-007	0.00000E+000	7.45058E-009	1.13430E-003	8	..........a	-327.65
	3	0.4	3.01012E-002	9.44696E-009	0.00000E+000	3.00000E-002	1.12580E-003	6	..........a	-327.65
	6	0.7	6.01223E-002	1.14957E-008	0.00000E+000	6.00000E-002	2.80035E-005	6	..........a	-327.65
	9	1	9.00507E-002	1.32901E-008	0.00000E+000	9.00000E-002	3.24702E-005	6	..........a	-327.65
	12	1.3	1.20080E-001	1.50254E-008	0.00000E+000	1.20000E-001	3.99368E-005	6	..........a	-327.65
	15	1.6	1.50098E-001	1.66927E-008	0.00000E+000	1.50000E-001	4.24368E-005	6	..........a	-327.65
	18	1.9	1.80093E-001	1.85118E-008	0.00000E+000	1.80000E-001	3.11702E-005	6	..........a	-327.65
	21	2.2	2.10089E-001	2.05636E-008	0.00000E+000	2.10000E-001	3.08368E-005	6	..........a	-327.65
	24	2.5	2.40104E-001	2.29299E-008	0.00000E+000	2.40000E-001	3.50369E-005	6	..........a	-327.65
	27	2.8	2.70047E-001	2.54292E-008	0.00000E+000	2.70000E-001	2.84368E-005	6	..........a	-327.65
	30	3.1	3.00120E-001	2.79042E-008	0.00000E+000	3.00000E-001	3.69702E-005	6	..........a	-327.65
	33	3.4	3.30080E-001	3.02377E-008	0.00000E+000	3.30000E-001	3.81702E-005	6	..........a	-327.65
	36	3.7	3.60068E-001	3.22894E-008	0.00000E+000	3.60000E-001	2.93702E-005	6	..........a	-327.65
	39	4	3.90087E-001	3.40298E-008	0.00000E+000	3.90000E-001	3.47368E-005	6	..........a	-327.65
	42	4.3	4.20158E-001	3.55243E-008	0.00000E+000	4.20000E-001	3.64035E-005	6	..........a	-327.65
	45	4.6	4.50149E-001	3.67676E-008	0.00000E+000	4.50000E-001	3.77702E-005	6	..........a	-327.65
	48	4.9	4.80133E-001	3.79537E-008	0.00000E+000	4.80000E-001	3.74035E-005	6	..........a	-327.65
	51	5.2	5.10139E-001	3.90770E-008	0.00000E+000	5.10000E-001	3.84035E-005	6	..........a	-327.65
	54	5.5	5.40155E-001	4.02034E-008	0.00000E+000	5.40000E-001	4.08702E-005	6	..........a	-327.65
	57	5.8	5.70156E-001	4.13634E-008	0.00000E+000	5.70000E-001	3.68368E-005	6	..........a	-327.65
	60	6.1	6.00154E-001	4.25771E-008	0.00000E+000	6.00000E-001	3.22702E-005	6	..........a	-327.65
	63	6.4	6.30151E-001	4.38499E-008	0.00000E+000	6.30000E-001	3.35368E-005	6	..........a	-327.65
	66	6.7	6.60144E-001	4.52483E-008	0.00000E+000	6.60000E-001	4.00035E-005	6	..........a	-327.65
	69	7	6.90147E-001	4.69259E-008	0.00000E+000	6.90000E-001	3.53368E-005	6	..........a	-327.65
	72	7.3	7.20118E-001	4.88643E-008	0.00000E+000	7.20000E-001	4.26035E-005	6	..........a	-327.65
	75	7.6	7.50144E-001	5.13381E-008	0.00000E+000	7.50000E-001	3.86035E-005	6	..........a	-327.65
	78	7.9	7.80154E-001	5.45093E-008	0.00000E+000	7.80000E-001	3.59702E-005	6	..........a	-327.65
	81	8.2	7.90177E-001	2.38630E-008	0.00000E+000	7.90000E-001	3.67702E-005	6	..........a	-327.65
	84	8.5	7.60183E-001	6.15889E-009	0.00000E+000	7.60000E-001	4.33035E-005	6	..........a	-327.65
	87	8.8	7.30127E-001	-1.52307E-009	0.00000E+000	7.30000E-001	4.48368E-005	6	..........a	-327.65
	90	9.1	7.00218E-001	-5.83747E-009	0.00000E+000	7.00000E-001	4.58035E-005	6	..........a	-327.65
	93	9.4	6.70178E-001	-8.50899E-009	0.00000E+000	6.70000E-001	4.22369E-005	6	..........a	-327.65
	96	9.7	6.40161E-001	-1.03223E-008	0.00000E+000	6.40000E-001	4.85035E-005	6	..........a	-327.65
	99	10	6.10191E-001	-1.16264E-008	0.00000E+000	6.10000E-001	4.94368E-005	6	..........a	-327.65
	102	10.3	5.80232E-001	-1.26155E-008	0.00000E+000	5.80000E-001	4.18035E-005	6	..........a	-327.65
	105	10.6	5.50207E-001	-1.34534E-008	0.00000E+000	5.50000E-001	3.61035E-005	6	..........a	-327.65
[...]
	1365	136.6	-3.50035E-001	-3.31476E-009	0.00000E+000	-3.50000E-001	5.34702E-005	6	..........a	-327.65
	1366	136.7	-3.40005E-001	-2.47681E-009	0.00000E+000	-3.40000E-001	5.65368E-005	6	..........a	-327.65
	1367	136.8	-3.30038E-001	-1.59199E-009	0.00000E+000	-3.30000E-001	5.20035E-005	6	..........a	-327.65
	1368	136.9	-3.19994E-001	-7.27266E-010	0.00000E+000	-3.20000E-001	5.59368E-005	6	..........a	-327.65
	1369	137	-3.10036E-001	1.42890E-010	0.00000E+000	-3.10000E-001	5.29035E-005	6	..........a	-327.65
	1370	137.1	-3.00011E-001	1.00968E-009	0.00000E+000	-3.00000E-001	5.00035E-005	6	..........a	-327.65
	1371	137.2	-2.90046E-001	1.88784E-009	0.00000E+000	-2.90000E-001	4.79035E-005	6	..........a	-327.65
	1372	137.3	-2.80017E-001	2.73585E-009	0.00000E+000	-2.80000E-001	4.76702E-005	6	..........a	-327.65
	1373	137.4	-2.70006E-001	3.57070E-009	0.00000E+000	-2.70000E-001	4.85035E-005	6	..........a	-327.65
	1374	137.5	-2.59989E-001	4.42985E-009	0.00000E+000	-2.60000E-001	4.90368E-005	6	..........a	-327.65
	1375	137.6	-2.50037E-001	5.28220E-009	0.00000E+000	-2.50000E-001	4.52702E-005	6	..........a	-327.65
	1376	137.7	-2.39985E-001	6.08437E-009	0.00000E+000	-2.40000E-001	4.92368E-005	6	..........a	-327.65
	1377	137.8	-2.30055E-001	6.86407E-009	0.00000E+000	-2.30000E-001	4.74035E-005	6	..........a	-327.65
	1378	137.9	-2.19993E-001	7.63436E-009	0.00000E+000	-2.20000E-001	4.45035E-005	6	..........a	-327.65
	1379	138	-2.10040E-001	8.37154E-009	0.00000E+000	-2.10000E-001	4.73035E-005	6	..........a	-327.65
	1380	138.1	-2.00019E-001	9.12253E-009	0.00000E+000	-2.00000E-001	4.73702E-005	6	..........a	-327.65
	1381	138.2	-1.90082E-001	9.87448E-009	0.00000E+000	-1.90000E-001	4.93702E-005	6	..........a	-327.65
	1382	138.3	-1.80006E-001	1.05873E-008	0.00000E+000	-1.80000E-001	4.83702E-005	6	..........a	-327.65
	1383	138.4	-1.70009E-001	1.12973E-008	0.00000E+000	-1.70000E-001	4.53702E-005	6	..........a	-327.65
	1384	138.5	-1.59970E-001	1.20044E-008	0.00000E+000	-1.60000E-001	4.51702E-005	6	..........a	-327.65
	1385	138.6	-1.50032E-001	1.27112E-008	0.00000E+000	-1.50000E-001	4.41702E-005	6	..........a	-327.65
	1386	138.7	-1.40012E-001	1.34116E-008	0.00000E+000	-1.40000E-001	4.42035E-005	6	..........a	-327.65
	1387	138.8	-1.30036E-001	1.41291E-008	0.00000E+000	-1.30000E-001	4.43035E-005	6	..........a	-327.65
	1388	138.9	-1.20000E-001	1.48579E-008	0.00000E+000	-1.20000E-001	4.99035E-005	6	..........a	-327.65
	1389	139	-1.10033E-001	1.55845E-008	0.00000E+000	-1.10000E-001	4.80035E-005	6	..........a	-327.65
	1390	139.1	-1.00016E-001	1.63040E-008	0.00000E+000	-1.00000E-001	5.12368E-005	6	..........a	-327.65
	1391	139.2	-9.00320E-002	1.70669E-008	0.00000E+000	-9.00000E-002	4.63035E-005	6	..........a	-327.65
	1392	139.3	-8.00072E-002	1.78151E-008	0.00000E+000	-8.00000E-002	4.12368E-005	6	..........a	-327.65
	1393	139.4	-7.00172E-002	1.85867E-008	0.00000E+000	-7.00000E-002	4.50702E-005	6	..........a	-327.65
	1394	139.5	-6.00014E-002	1.93678E-008	0.00000E+000	-6.00000E-002	4.44035E-005	6	..........a	-327.65
	1395	139.6	-5.00568E-002	2.01882E-008	0.00000E+000	-5.00000E-002	4.78368E-005	6	..........a	-327.65
	1396	139.7	-4.00163E-002	2.10199E-008	0.00000E+000	-4.00000E-002	4.14368E-005	6	..........a	-327.65
	1397	139.8	-3.00492E-002	2.18779E-008	0.00000E+000	-3.00000E-002	4.20368E-005	6	..........a	-327.65
	1398	139.9	-1.99929E-002	2.27704E-008	0.00000E+000	-2.00000E-002	4.14035E-005	6	..........a	-327.65
	1399	140	-1.00362E-002	2.36818E-008	0.00000E+000	-1.00000E-002	4.38702E-005	6	..........a	-327.65
	1400	140.1	7.58227E-005	2.46290E-008	0.00000E+000	7.45058E-009	1.13557E-003	6	..........a	-327.65