Folder: StimNET/Figure 1F/data (part 4)

File: 50M.DTA
EXPLAIN
TAG	CV
TITLE	LABEL	Cyclic Voltammetry	Test &Identifier
DATE	LABEL	8/25/2021	Date
TIME	LABEL	12:47:35	Time
NOTES	NOTES	1	&Notes...

PSTAT	PSTAT	REF600P-40007	Potentiostat
VINIT	POTEN	0.00000E+000	F	Initial &E (V)
VLIMIT1	POTEN	8.00000E-001	F	Scan Limit &1 (V)
VLIMIT2	POTEN	-6.00000E-001	F	Scan Limit &2 (V)
VFINAL	POTEN	0.00000E+000	F	Final &E (V)
SCANRATE	QUANT	9.99998E+001	&Scan Rate (mV/s)
STEPSIZE	QUANT	1.00000E+001	St&ep Size (mV)
CYCLES	IQUANT	5	C&ycles (#)
IMODE	SELECTOR	0	I/E Range &Mode
IRANGE	QUANT	3.00000E-001	&Max Current (mA)
AREA	QUANT	2.87000E-005	Electrode &Area (cm^2)
ELECTRODETYPE	SELECTOR	0	Electrode Type
STRIPPING	TOGGLE	F	Used for Stripping
POLARITY	TOGGLE	F	Signal Polarity
CONDIT	TWOPARAM	F	1.50000E+001	0.00000E+000	Conditionin&g	Time(s)	E(V)
DELAY	TWOPARAM	T	5.00000E+000	0.00000E+000	Init. De&lay	Time(s)	Stab.(mV/s)
EQDELAY	QUANT	5.00000E+000	Equil. &Time (s)
IRCOMP	SELECTOR	0	IRCom&p
PFCOR	QUANT	5.00000E+001	PF Corr. (ohm)
SAMPLINGMODE	SELECTOR	2	Sampling &Mode
OCVCURVE	TABLE	19
	Pt	T	Vf	Vm	Ach	Over	Temp
	#	s	V vs. Ref.	V	V	bits	deg C
	0	0.258333	2.40355E-001	2.40355E-001	1.19093E-003	..........a	-327.65
	1	0.516667	2.40361E-001	2.40714E-001	1.19380E-003	..........a	-327.65
	2	0.775	2.40393E-001	2.40512E-001	1.19047E-003	..........a	-327.65
	3	1.03333	2.40454E-001	2.40592E-001	1.18427E-003	..........a	-327.65
	4	1.29167	2.40528E-001	2.41171E-001	1.19067E-003	..........a	-327.65
	5	1.55	2.40634E-001	2.41495E-001	1.19093E-003	..........a	-327.65
	6	1.80833	2.40821E-001	2.41821E-001	1.19700E-003	..........a	-327.65
	7	2.06667	2.41096E-001	2.41889E-001	1.19733E-003	..........a	-327.65
	8	2.325	2.41406E-001	2.42365E-001	1.19726E-003	..........a	-327.65
	9	2.58333	2.41699E-001	2.42182E-001	1.19760E-003	..........a	-327.65
	10	2.84167	2.41942E-001	2.42203E-001	1.19686E-003	..........a	-327.65
	11	3.1	2.42113E-001	2.42439E-001	1.19773E-003	..........a	-327.65
	12	3.35833	2.42211E-001	2.42019E-001	1.19040E-003	..........a	-327.65
	13	3.61667	2.42242E-001	2.41882E-001	1.18933E-003	..........a	-327.65
	14	3.875	2.42200E-001	2.41819E-001	1.19380E-003	..........a	-327.65
	15	4.13333	2.42093E-001	2.41767E-001	1.18887E-003	..........a	-327.65
	16	4.39167	2.41966E-001	2.41739E-001	1.18847E-003	..........a	-327.65
	17	4.65	2.41861E-001	2.41724E-001	1.19453E-003	..........a	-327.65
	18	4.90833	2.41790E-001	2.41681E-001	1.18940E-003	..........a	-327.65
EOC	QUANT	0.2417904	Open Circuit (V)
PSTATMODEL	IQUANT	7	Pstat Model
PSTATSECTION	LABEL	REF600P-40007	Pstat Section
PSTATSERIALNO	LABEL	40007	Pstat Serial Number
CTRLMODE	IQUANT	1	Control Mode
ELECTROMETER	IQUANT	0	RE=0 or CS=1
IESTAB	IQUANT	2	I/E Stability
CASPEED	IQUANT	4	Control Amp Speed
CONVENTION	IQUANT	1	Current Convention
ICHRANGE	IQUANT	2	Ich Range
ICHRANGEMODE	TOGGLE	F	Ich Auto Range
ICHOFFSETENABLE	TOGGLE	F	Ich Offset Enable
ICHOFFSET	QUANT	0	Ich Offset (V)
ICHFILTER	IQUANT	2	Ich Filter
VCHRANGE	IQUANT	2	Vch Range
VCHRANGEMODE	TOGGLE	F	Vch Auto Range
VCHOFFSETENABLE	TOGGLE	F	Vch Offset Enable
VCHOFFSET	QUANT	0	Vch Offset (V)
VCHFILTER	IQUANT	2	Vch Filter
ACHRANGE	IQUANT	2	Ach Range
ACHOFFSETENABLE	TOGGLE	F	Ach Offset Enable
ACHOFFSET	QUANT	0	Ach Offset (V)
ACHFILTER	IQUANT	1	Ach Filter
IERANGELOWERLIMIT	IQUANT	1	I/E Range Lower Limit
IERANGEMODE	TOGGLE	T	I/E AutoRange
IERANGE	IQUANT	8	I/E Range
POSFEEDENABLE	TOGGLE	F	Positive Feedback IR Comp
POSFEEDRESISTANCE	QUANT	0	Positive Feedback Resistance (ohm)
ACHSELECT	IQUANT	0	Ach Select
SENSECABLEID	IQUANT	7	Sense Cable ID
PWRCABLEID	IQUANT	7	Power Cable ID
DCCALDATE	LABEL	8/25/2021	DC Calibration Date
ACCALDATE	LABEL	8/25/2021	AC Calibration Date
THERMOSELECT	IQUANT	1	Thermo Select
FRAMEWORKVERSION	LABEL	7.8.1	Framework Version
INSTRUMENTVERSION	LABEL	4.40	Instrument Version
CURVE1	TABLE
	Pt	T	Vf	Im	Vu	Sig	Ach	IERange	Over	Temp
	#	s	V vs. Ref.	A	V	V	V	#	bits	deg C
	0	0.1	3.18574E-005	-1.54837E-008	0.00000E+000	7.45058E-009	1.19553E-003	8	..........a	-327.65
	3	0.4	3.00063E-002	7.07497E-009	0.00000E+000	3.00000E-002	1.19080E-003	6	..........a	-327.65
	6	0.7	6.00035E-002	1.10864E-008	0.00000E+000	6.00000E-002	9.58318E-005	6	..........a	-327.65
	9	1	8.99924E-002	1.46027E-008	0.00000E+000	9.00000E-002	9.33652E-005	6	..........a	-327.65
	12	1.3	1.19987E-001	1.81071E-008	0.00000E+000	1.20000E-001	8.79318E-005	6	..........a	-327.65
	15	1.6	1.50017E-001	2.13010E-008	0.00000E+000	1.50000E-001	9.41652E-005	6	..........a	-327.65
	18	1.9	1.79996E-001	2.43365E-008	0.00000E+000	1.80000E-001	8.91985E-005	6	..........a	-327.65
	21	2.2	2.09986E-001	2.68431E-008	0.00000E+000	2.10000E-001	9.42318E-005	6	..........a	-327.65
	24	2.5	2.40002E-001	2.85157E-008	0.00000E+000	2.40000E-001	8.95318E-005	6	..........a	-327.65
	27	2.8	2.69977E-001	2.98167E-008	0.00000E+000	2.70000E-001	8.79318E-005	6	..........a	-327.65
	30	3.1	3.00008E-001	3.01740E-008	0.00000E+000	3.00000E-001	8.94318E-005	6	..........a	-327.65
	33	3.4	3.29985E-001	3.11801E-008	0.00000E+000	3.30000E-001	9.00652E-005	6	..........a	-327.65
	36	3.7	3.59971E-001	3.05130E-008	0.00000E+000	3.60000E-001	9.32318E-005	6	..........a	-327.65
	39	4	3.90021E-001	3.03238E-008	0.00000E+000	3.90000E-001	8.98985E-005	6	..........a	-327.65
	42	4.3	4.20071E-001	3.07500E-008	0.00000E+000	4.20000E-001	8.29652E-005	6	..........a	-327.65
	45	4.6	4.50022E-001	3.09111E-008	0.00000E+000	4.50000E-001	8.75652E-005	6	..........a	-327.65
	48	4.9	4.80059E-001	3.20486E-008	0.00000E+000	4.80000E-001	8.68652E-005	6	..........a	-327.65
	51	5.2	5.10056E-001	3.34110E-008	0.00000E+000	5.10000E-001	9.60318E-005	6	..........a	-327.65
	54	5.5	5.40061E-001	3.48986E-008	0.00000E+000	5.40000E-001	1.00465E-004	6	..........a	-327.65
	57	5.8	5.70051E-001	3.72470E-008	0.00000E+000	5.70000E-001	9.54318E-005	6	..........a	-327.65
	60	6.1	6.00072E-001	3.84764E-008	0.00000E+000	6.00000E-001	9.86651E-005	6	..........a	-327.65
	63	6.4	6.30064E-001	4.32080E-008	0.00000E+000	6.30000E-001	9.33318E-005	6	..........a	-327.65
	66	6.7	6.60104E-001	4.28664E-008	0.00000E+000	6.60000E-001	9.88985E-005	6	..........a	-327.65
	69	7	6.90046E-001	4.51945E-008	0.00000E+000	6.90000E-001	9.89985E-005	6	..........a	-327.65
	72	7.3	7.20044E-001	4.61995E-008	0.00000E+000	7.20000E-001	9.54652E-005	6	..........a	-327.65
	75	7.6	7.50074E-001	5.16781E-008	0.00000E+000	7.50000E-001	1.01499E-004	6	..........a	-327.65
	78	7.9	7.80073E-001	5.35055E-008	0.00000E+000	7.80000E-001	1.00132E-004	6	..........a	-327.65
	81	8.2	7.90106E-001	3.07478E-008	0.00000E+000	7.90000E-001	9.56652E-005	6	..........a	-327.65
	84	8.5	7.60136E-001	9.41635E-009	0.00000E+000	7.60000E-001	8.53652E-005	6	..........a	-327.65
	87	8.8	7.30060E-001	-1.72482E-009	0.00000E+000	7.30000E-001	8.75985E-005	6	..........a	-327.65
	90	9.1	7.00117E-001	-7.54070E-009	0.00000E+000	7.00000E-001	9.01318E-005	6	..........a	-327.65
	93	9.4	6.70095E-001	-1.18683E-008	0.00000E+000	6.70000E-001	9.41318E-005	6	..........a	-327.65
	96	9.7	6.40074E-001	-1.48901E-008	0.00000E+000	6.40000E-001	9.40652E-005	6	..........a	-327.65
	99	10	6.10079E-001	-1.65860E-008	0.00000E+000	6.10000E-001	8.99318E-005	6	..........a	-327.65
	102	10.3	5.80115E-001	-1.86043E-008	0.00000E+000	5.80000E-001	8.61985E-005	6	..........a	-327.65
	105	10.6	5.50124E-001	-1.92819E-008	0.00000E+000	5.50000E-001	8.93652E-005	6	..........a	-327.65
[...]
	1365	136.6	-3.50129E-001	-4.99185E-009	0.00000E+000	-3.50000E-001	1.02098E-004	6	..........a	-327.65
	1366	136.7	-3.40150E-001	-4.14586E-009	0.00000E+000	-3.40000E-001	9.94985E-005	6	..........a	-327.65
	1367	136.8	-3.30099E-001	-3.21876E-009	0.00000E+000	-3.30000E-001	1.00832E-004	6	..........a	-327.65
	1368	136.9	-3.20117E-001	-2.62022E-009	0.00000E+000	-3.20000E-001	1.00632E-004	6	..........a	-327.65
	1369	137	-3.10097E-001	-2.02211E-009	0.00000E+000	-3.10000E-001	9.80985E-005	6	..........a	-327.65
	1370	137.1	-3.00126E-001	-1.91588E-009	0.00000E+000	-3.00000E-001	9.91652E-005	6	..........a	-327.65
	1371	137.2	-2.90070E-001	-7.47099E-010	0.00000E+000	-2.90000E-001	9.51652E-005	6	..........a	-327.65
	1372	137.3	-2.80128E-001	5.00267E-010	0.00000E+000	-2.80000E-001	9.82652E-005	6	..........a	-327.65
	1373	137.4	-2.70095E-001	1.47129E-009	0.00000E+000	-2.70000E-001	9.81985E-005	6	..........a	-327.65
	1374	137.5	-2.60120E-001	2.32097E-009	0.00000E+000	-2.60000E-001	1.05265E-004	6	..........a	-327.65
	1375	137.6	-2.50092E-001	3.13454E-009	0.00000E+000	-2.50000E-001	1.03932E-004	6	..........a	-327.65
	1376	137.7	-2.40116E-001	3.89747E-009	0.00000E+000	-2.40000E-001	1.03398E-004	6	..........a	-327.65
	1377	137.8	-2.30104E-001	4.67860E-009	0.00000E+000	-2.30000E-001	1.02799E-004	6	..........a	-327.65
	1378	137.9	-2.20099E-001	5.43842E-009	0.00000E+000	-2.20000E-001	9.98652E-005	6	..........a	-327.65
	1379	138	-2.10060E-001	6.17624E-009	0.00000E+000	-2.10000E-001	1.07332E-004	6	..........a	-327.65
	1380	138.1	-2.00116E-001	6.86817E-009	0.00000E+000	-2.00000E-001	1.02932E-004	6	..........a	-327.65
	1381	138.2	-1.90117E-001	7.67211E-009	0.00000E+000	-1.90000E-001	1.02098E-004	6	..........a	-327.65
	1382	138.3	-1.80121E-001	8.43310E-009	0.00000E+000	-1.80000E-001	1.08832E-004	6	..........a	-327.65
	1383	138.4	-1.70071E-001	8.99486E-009	0.00000E+000	-1.70000E-001	1.02532E-004	6	..........a	-327.65
	1384	138.5	-1.60093E-001	9.68547E-009	0.00000E+000	-1.60000E-001	1.01932E-004	6	..........a	-327.65
	1385	138.6	-1.50114E-001	1.00982E-008	0.00000E+000	-1.50000E-001	1.00732E-004	6	..........a	-327.65
	1386	138.7	-1.40143E-001	1.11900E-008	0.00000E+000	-1.40000E-001	1.01298E-004	6	..........a	-327.65
	1387	138.8	-1.30079E-001	1.15825E-008	0.00000E+000	-1.30000E-001	9.83318E-005	6	..........a	-327.65
	1388	138.9	-1.20104E-001	1.22444E-008	0.00000E+000	-1.20000E-001	9.58985E-005	6	..........a	-327.65
	1389	139	-1.10042E-001	1.24559E-008	0.00000E+000	-1.10000E-001	1.00165E-004	6	..........a	-327.65
	1390	139.1	-1.00135E-001	1.31913E-008	0.00000E+000	-1.00000E-001	1.04665E-004	6	..........a	-327.65
	1391	139.2	-9.00956E-002	1.42843E-008	0.00000E+000	-9.00000E-002	9.95652E-005	6	..........a	-327.65
	1392	139.3	-8.01226E-002	1.47069E-008	0.00000E+000	-8.00000E-002	9.93652E-005	6	..........a	-327.65
	1393	139.4	-7.01020E-002	1.53502E-008	0.00000E+000	-7.00000E-002	1.03099E-004	6	..........a	-327.65
	1394	139.5	-6.01192E-002	1.59997E-008	0.00000E+000	-6.00000E-002	1.04965E-004	6	..........a	-327.65
	1395	139.6	-5.01036E-002	1.66048E-008	0.00000E+000	-5.00000E-002	9.92652E-005	6	..........a	-327.65
	1396	139.7	-4.01147E-002	1.72287E-008	0.00000E+000	-4.00000E-002	1.05198E-004	6	..........a	-327.65
	1397	139.8	-3.01076E-002	1.86752E-008	0.00000E+000	-3.00000E-002	1.11332E-004	6	..........a	-327.65
	1398	139.9	-2.01077E-002	1.94190E-008	0.00000E+000	-2.00000E-002	1.05365E-004	6	..........a	-327.65
	1399	140	-1.00851E-002	2.04148E-008	0.00000E+000	-1.00000E-002	1.06665E-004	6	..........a	-327.65
	1400	140.1	-1.17692E-004	2.26889E-008	0.00000E+000	7.45058E-009	9.92985E-005	6	..........a	-327.65